Time,Lat,Long,Pitch,Yaw,Roll,AccX,AccY,AccZ,GyroX,GyroY,GyroZ
2015-10-18 20:02:09.196,-36.887314,174.66107,66.920000000000002,-204.80424462391963,41.670693347071847,-899.87,10956.662614991212,-2400.1959249723641,-1245.95,253.32444849331895,473.85408534226633
2015-10-18 20:02:09.686,-36.887314,174.66107,65.760000000000005,-201.84224001001471,40.606818980802004,-953.87,10967.079186344159,-2371.9914033269083,-1244.95,255.84876443789011,467.2489487795612
2015-10-18 20:02:10.023,-36.887314,174.66107,64.489999999999995,-199.43914768799516,39.764116606383439,-919.87,10903.005358365945,-2422.216343030389,-1243.95,254.74225693296083,472.12497596791195
2015-10-18 20:02:10.390,-36.887314,174.66107,63.259999999999998,-197.11531700472807,38.951706023299721,-916.87,10949.26227185829,-2394.6972959145878,-1243.95,255.53746350317758,464.10203096556495
2015-10-18 20:02:10.795,-36.887314,174.66107,61.93,-195.31076779397011,38.345321536399823,-925.87,10890.446651303317,-2359.644153705457,-1244.95,255.24712012187507,470.8039486553709
2015-10-18 20:02:11.294,-36.887314,174.66107,60.590000000000003,-193.68300076573163,37.791358990933375,-971.87,10911.402476963234,-2388.7277121347688,-1244.95,254.93581918716251,467.65703084137459
2015-10-18 20:02:11.435,-36.887314,174.66107,59.25,-192.25027482502719,37.281656745664094,-906.87,10946.918567254459,-2350.9307898999432,-1244.95,255.94554556499097,465.01497621629255
2015-10-18 20:02:11.857,-36.887314,174.66107,58.310000000000002,-191.48311117248241,37.011175821726525,-991.87,10910.662136413299,-2402.6364107032946,-1243.95,254.83903806006163,469.89100340464324
2015-10-18 20:02:12.242,-36.887314,174.66107,56.899999999999999,-190.47000096244392,36.631560618769853,-886.87,10921.70130963567,-2368.1380534298473,-1244.95,254.52773712534912,466.74408559064699
2015-10-18 20:02:12.664,-36.887314,174.66107,55.490000000000002,-189.57170238991603,36.28825365030815,-914.87,10921.369051147547,-2381.1338067476454,-1244.95,255.3439012489759,468.56997609210225
2015-10-18 20:02:12.921,-36.887314,174.66107,54.030000000000001,-188.93041544993108,36.005320688982081,-901.87,10951.420420847868,-2382.5177067204168,-1243.95,254.74225693296083,472.12497596791195
2015-10-18 20:02:13.319,-36.887314,174.66107,53.090000000000003,-188.44861959872208,35.760631584693044,-901.87,10887.707815551135,-2358.4199075200167,-1244.95,254.62451825244995,464.51011302737834
2015-10-18 20:02:13.718,-36.887314,174.66107,51.630000000000003,-187.95050046504053,35.479424670374883,-948.87,10896.36631333637,-2392.9601799002849,-1244.95,254.23739374404659,473.44600328045294
2015-10-18 20:02:14.369,-36.887314,174.66107,50.170000000000002,-187.54270804516074,35.179749275508073,-862.87,10907.397479918791,-2409.9399727091159,-1243.95,254.83903806006163,469.89100340464324
2015-10-18 20:02:14.787,-36.887314,174.66107,48.710000000000001,-187.18969234032457,34.855588956932458,-928.87,10876.710557435585,-2373.2205937858598,-1244.95,254.33417487114744,471.21203071718435
2015-10-18 20:02:14.949,-36.887314,174.66107,47.25,-186.95245608427001,34.54539714721917,-925.87,10877.934803621025,-2370.4817580336771,-1244.95,255.44068237607672,466.3360035288336
2015-10-18 20:02:15.223,-36.887314,174.66107,45.780000000000001,-186.78631982573162,34.247238223826166,-950.87,10899.866447191896,-2370.4268920133964,-1244.95,255.44068237607672,466.3360035288336
2015-10-18 20:02:15.451,-36.887314,174.66107,44.75,-186.85409723836659,34.129313576968492,-962.87,10928.94199898126,-2400.9492164357603,-1243.95,253.32444849331895,473.85408534226633
2015-10-18 20:02:15.988,-36.887314,174.66107,43.759999999999998,-186.80996644730402,33.908061518717744,-928.87,10856.701585493267,-2376.3255964930368,-1243.95,255.44068237607672,466.3360035288336
2015-10-18 20:02:16.225,-36.887314,174.66107,42.350000000000001,-186.71880143136588,33.532576579114313,-938.87,10918.007613525939,-2386.2033961901975,-1244.95,255.53746350317758,464.10203096556495
2015-10-18 20:02:16.622,-36.887314,174.66107,40.789999999999999,-186.94371515916654,33.300598530482972,-917.87,10900.135833019789,-2386.9776452070041,-1244.95,254.14061261694573,475.67997584372159
2015-10-18 20:02:17.084,-36.887314,174.66107,39.359999999999999,-186.98444329894841,32.877111554732934,-914.87,10903.102139493045,-2424.4503155936577,-1244.95,255.12938144136419,463.18908571483735
2015-10-18 20:02:17.607,-36.887314,174.66107,37.93,-187.11259471871898,32.50217527533232,-921.87,10918.028571079349,-2376.3545606863959,-1244.95,255.84876443789011,467.2489487795612
2015-10-18 20:02:17.814,-36.887314,174.66106,36.450000000000003,-187.38605914286904,32.182773946712246,-920.87,10914.292959862798,-2414.1175744543507,-1244.95,253.92609280933402,470.29908546645663
2015-10-18 20:02:18.225,-36.887302,174.66106,35.009999999999998,-187.63600645458138,31.786256177415851,-922.87,10931.108154610787,-2337.2914771593091,-1244.95,253.61479187462146,467.15216765246038
2015-10-18 20:02:18.620,-36.887302,174.66106,33.579999999999998,-187.92247157632275,31.3734151256469,-873.87,10929.371038596484,-2390.1874356812309,-1244.95,255.3439012489759,468.56997609210225
2015-10-18 20:02:19.080,-36.887302,174.66106,32.130000000000003,-188.29829560059488,30.964445318961992,-937.87,10897.030830312613,-2366.9686732646874,-1244.95,254.23739374404659,473.44600328045294
2015-10-18 20:02:19.417,-36.887302,174.66106,30.609999999999999,-188.79301208299574,30.600913199279375,-806.87,10894.700076622243,-2364.8314818285194,-1244.95,253.2276673662181,476.08805790553498
2015-10-18 20:02:19.707,-36.887302,174.66106,29.350000000000001,-188.96521422742939,29.932447477306695,-880.87,10965.266246756164,-2412.8045537817588,-1244.95,258.3730803824613,460.64381221685613
2015-10-18 20:02:19.944,-36.887302,174.66106,28.539999999999999,-189.08810743977671,29.472233115993447,-984.87,10919.446379518991,-2378.0836700607501,-1246.95,257.43917757832367,451.20305877486732
2015-10-18 20:02:20.348,-36.887302,174.66106,27.460000000000001,-189.5741136207385,29.309758527005002,-952.87,10916.976929594701,-2393.4101770689185,-1244.95,250.91787122925862,488.07408484550501
2015-10-18 20:02:20.818,-36.887302,174.66106,26.039999999999999,-190.09697669639803,28.813155864797267,-922.87,10863.377601356151,-2292.7766239547786,-1245.95,253.61479187462146,467.15216765246038
2015-10-18 20:02:21.006,-36.887302,174.66106,24.850000000000001,-190.40515281716984,28.105817559185269,-908.87,10901.048778270517,-2387.3857272688178,-1244.95,259.47958788739061,455.76778502850544
2015-10-18 20:02:21.409,-36.887302,174.66106,23.949999999999999,-190.70890903265476,27.707154591812738,-1012.87,10994.328847632067,-2401.6975636256457,-1244.95,257.07301062333033,469.98778453174413
2015-10-18 20:02:21.824,-36.887302,174.66106,22.620000000000001,-191.24380499463464,27.139451932088804,-904.87,10864.910086109865,-2431.4764851316359,-1243.95,253.61479187462146,467.15216765246038
2015-10-18 20:02:22.273,-36.887302,174.66106,21.32,-191.73574755235705,26.426645843519481,-932.87,10893.841997391797,-2386.355043337579,-1244.95,254.43095599824824,468.97805815391564
2015-10-18 20:02:22.477,-36.887302,174.66106,20.039999999999999,-192.28772503254638,25.774632913153937,-865.87,10840.697610595393,-2358.2183386258657,-1245.95,255.75198331078929,469.48292134282985
2015-10-18 20:02:22.776,-36.887302,174.66106,19.23,-192.66043604747142,25.334193928329057,-1024.8699999999999,10896.021103934785,-2364.3266186396054,-1245.95,258.27629925536047,462.87778478012478
2015-10-18 20:02:23.096,-36.887302,174.66106,18.289999999999999,-193.11648952176699,24.933176187346319,-876.87,10864.316448433799,-2376.443335173547,-1244.95,252.21794098838961,478.73011253061702
2015-10-18 20:02:23.390,-36.887302,174.66106,17.440000000000001,-193.55117108170094,24.508850909459895,-833.87,10914.923568372171,-2356.3455887440787,-1243.95,255.15033899477422,473.03792121863955
2015-10-18 20:02:23.774,-36.887302,174.66106,16.73,-193.86965404178511,23.873580412635093,-891.87,10906.353845074091,-2375.5174390093589,-1246.95,257.24561532412196,455.67100390140462
2015-10-18 20:02:24.067,-36.887302,174.66106,15.6,-194.44666510588607,23.057027761604488,-940.87,10937.339117578549,-2367.4605855401414,-1243.95,255.03260031426333,465.42305827810594
2015-10-18 20:02:24.328,-36.887302,174.66106,14.4,-195.11518027059384,22.298155259430573,-984.87,10896.311447316088,-2371.0285363294115,-1244.95,254.02287393643485,468.06511290318798
2015-10-18 20:02:24.860,-36.887302,174.66106,13.49,-195.65146319491291,21.905089584149991,-894.87,10926.825765098502,-2393.4311346223276,-1243.95,253.13088623911725,478.32203046880363
2015-10-18 20:02:25.417,-36.887302,174.66106,11.710000000000001,-196.76441809866424,21.013276048585567,-734.87,10889.533706052589,-2359.2360716436433,-1245.95,253.32444849331895,473.85408534226633
2015-10-18 20:02:25.648,-36.887302,174.66106,10.24,-197.7388346769331,19.909549482811769,-788.87,10901.692337693352,-2371.2430561370229,-1243.95,252.81958530440471,475.17511265480738
2015-10-18 20:02:26.115,-36.887302,174.66106,9.5899999999999999,-198.23818064015484,19.335830379927671,-817.87,10893.101656841862,-2400.2637419061061,-1244.95,256.95527194281942,462.37292159121057
2015-10-18 20:02:26.315,-36.887302,174.66106,8.5999999999999996,-199.00186157501943,18.446790769041669,-821.87,10881.578577983986,-2423.5922363632108,-1244.95,254.43095599824824,468.97805815391564
2015-10-18 20:02:26.741,-36.887302,174.66106,7.96,-199.50314316078325,17.828392214892204,-823.87,10927.448366967927,-2387.1372989943357,-1244.95,255.03260031426333,465.42305827810594
2015-10-18 20:02:27.119,-36.887325,174.66101,6.9299999999999997,-200.30839053756608,16.909819048408266,-883.87,10894.838772856163,-2347.3677833841839,-1246.95,254.52773712534912,466.74408559064699
2015-10-18 20:02:27.361,-36.887325,174.66101,5.8600000000000003,-201.1604625636904,16.046990408238969,-830.87,10956.636713164289,-2316.937295815409,-1243.95,252.81958530440471,475.17511265480738
2015-10-18 20:02:27.917,-36.887325,174.66101,5.0099999999999998,-201.81231536125694,15.569404886782692,-869.87,10832.969953247859,-2458.8229275466456,-1244.95,250.91787122925862,488.07408484550501
2015-10-18 20:02:28.184,-36.887325,174.66101,4.0099999999999998,-202.69059835809801,14.618185155353672,-727.87,10887.532148483906,-2488.6887416327136,-1243.95,251.78890137316623,467.96833177608721
2015-10-18 20:02:28.710,-36.887325,174.66101,3.1899999999999999,125.03760000323427,160.57436247866963,-566.87,10906.824799796135,-2345.057987247224,-1246.95,257.84725964013705,452.11600402559498
2015-10-18 20:02:28.980,-36.887325,174.66101,2.8100000000000001,124.47767045734277,159.84212009828065,-787.87,10934.718020506876,-2358.6214764141673,-1243.95,257.24561532412196,455.67100390140462
2015-10-18 20:02:29.272,-36.887325,174.66101,2.2999999999999998,126.28085631494881,151.76479871288748,-899.87,10897.240405846713,-2268.4803182266651,-1244.95,260.37157558470824,445.51086746288979
2015-10-18 20:02:30.072,-36.887325,174.66101,1.8600000000000001,126.96364143504613,148.20339386651384,-1103.8699999999999,10846.507540587882,-2347.6710776789469,-1244.95,256.64397100810686,459.22600377721426
2015-10-18 20:02:30.287,-36.887325,174.66101,-0.91000000000000003,125.5355261560919,146.54635230094664,-623.87,10846.37378862747,-2458.2422407840404,-1243.95,243.96752526497019,514.18333016161284
2015-10-18 20:02:30.693,-36.887325,174.66101,-2.2400000000000002,125.63125239104514,143.07304890389915,-528.87,10874.918575401,-2404.1849087369083,-1242.95,247.59834871447069,502.70216641055708
2015-10-18 20:02:30.991,-36.887325,174.66101,-2.9199999999999999,125.88343677182668,139.07818932713178,-494.87,10878.604264870779,-2437.5977160588372,-1244.95,255.3439012489759,468.56997609210225
2015-10-18 20:02:31.377,-36.887325,174.66101,-3.1800000000000002,126.13020281238597,136.19817083392263,-682.87,10880.728505393487,-2393.6376477899908,-1244.95,255.82780688448011,457.400113275759
2015-10-18 20:02:31.755,-36.887325,174.66101,-3.6299999999999999,126.53863576346174,131.78024343247347,-487.87,10925.075698170738,-2404.6977785657718,-1245.95,255.53746350317758,464.10203096556495
2015-10-18 20:02:32.002,174.66101,174.66101,-4.0099999999999998,127.48186579104714,126.06786939753307,-625.87,10916.610762639706,-2374.6254513120416,-1244.95,256.16006537260267,470.39586659355751
2015-10-18 20:02:32.409,-36.88733,174.66101,-4.1600000000000001,128.05627486786224,122.38134607433648,-490.87,10926.645153757761,-2430.5925040742686,-1245.95,256.33267007339435,456.07908596321801
2015-10-18 20:02:32.812,-36.88733,174.66101,-4.2999999999999998,120.55531922525756,135.53546955131799,-577.87,10862.498564572294,-2324.1490209676413,-1244.95,256.33267007339435,456.07908596321801
2015-10-18 20:02:33.292,-36.88733,174.66101,-4.54,123.28186786296745,125.83352477069786,-520.87,11084.465061546058,-2271.1124843047241,-1241.95,256.04232669209182,462.78100365302396
2015-10-18 20:02:33.553,-36.88733,174.66101,-4.7000000000000002,129.16445675270381,110.24724400990216,-733.87,10766.782953753325,-2356.9441706936559,-1248.95,255.12938144136419,463.18908571483735
2015-10-18 20:02:33.965,-36.88733,174.66101,-5.1200000000000001,136.5227367919957,90.183370633523452,-881.87,10844.610770786247,-2427.8795701490071,-1241.95,254.54869467875912,476.59292109444925
2015-10-18 20:02:34.134,-36.88733,174.66101,-5.1399999999999997,142.46711727487127,73.233608373396962,-634.87,11675.344089568056,-2725.8244527460406,-1242.95,256.23588894629347,458.31305852648666
2015-10-18 20:02:34.418,-36.88733,174.66101,-5.0700000000000003,145.78598300514849,63.358284061538065,-653.87,10518.300309861006,-2035.5653044247574,-1247.95,259.07150582557722,454.85483977777784
2015-10-18 20:02:34.782,-36.88733,174.66101,-4.7599999999999998,148.68237901368184,54.47710226170129,-740.87,11599.676303431786,-2880.4025435003127,-1245.95,260.06027464999568,442.36394964889354
2015-10-18 20:02:35.084,-36.88733,174.66101,-4.3099999999999996,151.2218080058955,46.345503378732168,-1069.8699999999999,11237.618038668446,-3016.5010846995447,-1243.95,265.28151123992973,414.83689589314383
2015-10-18 20:02:35.728,-36.88733,174.66101,-4.5700000000000003,154.14617165581788,36.25002432902815,-1047.8699999999999,11080.833057637192,-2641.9100147004992,-1236.95,251.11143348346033,483.60613971896771
2015-10-18 20:02:36.282,-36.88733,174.66101,21.949999999999999,157.56562628659069,15.367521365348566,-941.87,8257.261057563921,-1300.9215134812609,-1310.95,255.22616256846501,460.9551131515687
2015-10-18 20:02:37.059,-36.88733,174.66101,23.690000000000001,171.36097579762384,-16.989693160448276,-876.87,11136.19658417633,-2390.6275443028417,-1250.95,262.23137455303424,412.9142242645878
2015-10-18 20:02:37.298,-36.88733,174.66101,25.940000000000001,188.88067812793892,-58.438535487552556,-896.87,12159.780335931138,-3864.6547839234499,-1236.95,216.79863182426459,438.6992177325223
2015-10-18 20:02:37.842,-36.88733,174.66101,26.780000000000001,192.15083302906777,-67.37172007775456,-1131.8699999999999,11232.035801833086,-4685.5190110957574,-1242.95,183.57938675653742,430.54558313620373
2015-10-18 20:02:38.513,-36.88733,174.66101,27.809999999999999,195.37717740473201,-78.142778612997034,-1266.8699999999999,10754.344089714341,-4146.6724390800664,-1249.95,221.07301469660021,443.36072511326131
2015-10-18 20:02:38.826,-36.88733,174.66101,28.25,197.26330538971121,-83.685613738118349,-892.87,9315.1957622705959,-2234.9580013002305,-1306.95,275.97547506071794,477.96881442727101
2015-10-18 20:02:39.049,-36.88733,174.66101,31.359999999999999,199.36000888529563,-87.984198906706268,-1469.8699999999999,13413.96838146713,-2705.5618858196735,-1221.95,333.28145032245834,353.77128949500519
2015-10-18 20:02:39.398,-36.88733,174.66101,33.18,199.10281830088297,-89.271192691962995,-1243.8699999999999,13208.309855133713,-3445.00868616867,-1219.95,185.97795738064849,364.84743355068531
2015-10-18 20:02:39.701,-36.88733,174.66101,33.039999999999999,195.15467268339324,-87.618483950806052,-850.87,12839.524249865301,-2495.8884738947932,-1216.95,27.036709266889687,489.56583495176386
2015-10-18 20:02:39.996,-36.88733,174.66101,31.789999999999999,192.52402221802919,-86.242192510347337,-1210.8699999999999,8371.5204934935773,-2192.1329257180182,-1300.95,163.23321205258634,507.55229177198623
2015-10-18 20:02:40.207,-36.88733,174.66101,31.260000000000002,191.89089691928049,-85.977518454035803,-1249.8699999999999,9148.9033913229741,-1413.5933762008667,-1226.95,202.55273049410437,519.55126962541704
2015-10-18 20:02:40.810,-36.88733,174.66101,31.420000000000002,192.47630982381619,-86.723569210488137,-760.87,7794.7628019406429,-1495.0873280455792,-1195.95,289.51800667425073,496.01319963421184
2015-10-18 20:02:41.417,-36.88733,174.66101,31.050000000000001,194.56508007276918,-88.725453035061577,-1113.8699999999999,11103.999537388238,-3445.3030158001757,-1255.95,348.96423573859664,518.73204313535246
2015-10-18 20:02:41.738,-36.88733,174.66101,24.579999999999998,209.58228780621192,-95.978622817344871,-1197.8699999999999,1311.8135326510082,723.63860631787907,-1262.95,411.58634681029804,602.46657128786251
2015-10-18 20:02:42.507,-36.88733,174.66101,21.100000000000001,213.35114813936661,-100.21983629808042,-1175.8699999999999,11101.075625033458,-2385.882206708462,-1185.95,414.24441471527859,706.43259783025053
2015-10-18 20:02:42.726,-36.88733,174.66101,10.83,89.372233591551719,202.67502920403666,-1002.87,11147.633249465782,-1549.0295389065254,-1108.95,871.70086462999927,583.00814145542745
2015-10-18 20:02:43.309,-36.88733,174.66101,8.3800000000000008,98.457972234473075,190.55790275786447,130.13,11415.329179718548,-2861.530925163358,-1087.95,870.81382120619332,500.15759436028577
2015-10-18 20:02:43.661,-36.88733,174.66101,3.2799999999999998,109.59573492171349,174.14412676564638,-295.87,15375.08639397771,-3863.6785211403808,-1038.95,715.49538990198562,561.91668192802888
2015-10-18 20:02:44.099,-36.887314,174.66103,-1.6299999999999999,114.49357678468132,165.17176113080069,-878.87,9087.7096786856491,-2305.2437165998708,-1122.95,653.48599215268632,670.69091872502599
2015-10-18 20:02:44.216,-36.887314,174.66103,-6.8799999999999999,115.22442997837055,148.56424615687175,-1837.8699999999999,8582.7016688046169,-1290.8513319892613,-1146.95,780.67078111161754,700.37305910391569
2015-10-18 20:02:44.872,-36.887314,174.66103,-11.390000000000001,118.84218224411333,140.42174233165233,1459.1300000000001,10398.432512833009,-1107.8909481791752,-983.95000000000005,930.27606355043758,625.83273802598592
2015-10-18 20:02:45.129,-36.887314,174.66103,-21.690000000000001,129.4017118278291,112.31398299422682,-1429.8699999999999,8422.4492819253392,-1352.8527230986117,-1104.95,843.42051941085288,605.50752087544481
2015-10-18 20:02:45.653,-36.887314,174.66103,-24.739999999999998,131.12281267926917,103.68515272244767,441.13,10837.212309560398,-2660.0740204950253,-980.95000000000005,874.08648434064958,558.93930644838656
2015-10-18 20:02:45.932,-36.887314,174.66103,-26.98,132.45879290665368,89.473117089504797,1793.1300000000001,11315.832980209771,-3096.3723744079698,-1000.95,838.80587141044543,536.37211009462749
2015-10-18 20:02:46.443,-36.887314,174.66103,-23.699999999999999,132.936548141142,67.74669193634351,-2278.8699999999999,10761.743731399552,-3532.1992945872171,-1144.95,813.29520804391495,381.28114951149246
2015-10-18 20:02:47.251,-36.887314,174.66103,-19.93,132.02550087481495,62.62942773771961,-2242.8699999999999,11064.188808118977,-4117.5820544701692,-1188.95,657.19946535646295,316.32640284234776
2015-10-18 20:02:47.507,-36.887314,174.66103,-0.77000000000000002,144.52903602191159,75.261585464146165,-1979.8699999999999,8826.2315039115874,-3605.7548330909317,-1249.95,304.53015038126847,345.81121715288822
2015-10-18 20:02:48.159,-36.887314,174.66103,0.11,142.31061670078495,79.023807642015498,-2216.8699999999999,13229.969272946315,-5195.2109229459002,-1231.95,236.76568865976154,422.10654943209408
2015-10-18 20:02:48.532,-36.887314,174.66103,0.68000000000000005,137.73147917802902,84.71016847717965,-928.87,13137.329700641163,-5309.3420302003142,-1191.95,249.88718729802014,480.86730396678485
2015-10-18 20:02:48.917,-36.887314,174.66103,0.42999999999999999,136.51702179536281,85.711763837436237,-1881.8699999999999,12384.725611279962,-4892.9706999231203,-1177.95,234.58163784326217,493.18558939487741
2015-10-18 20:02:49.133,-36.887314,174.66103,-0.40000000000000002,135.39739109818464,86.525721515658134,-879.87,11314.59578311087,-3057.4818955816745,-1278.95,215.76300361951459,524.59990151455941
2015-10-18 20:02:49.543,-36.887314,174.66103,-2.1899999999999999,134.40371717996584,86.837349730445752,-891.87,15948.750316619105,-6400.6345483429977,-1248.95,231.37490973547358,608.53599856122037
2015-10-18 20:02:50.034,-36.887314,174.66103,-0.14000000000000001,133.8457232566164,86.149786801322122,-1065.8699999999999,12753.345472167712,-1911.8797254375886,-1307.95,350.71924693987262,436.89122241803932
2015-10-18 20:02:50.403,-36.887314,174.66103,8.8900000000000006,132.94580932714445,84.389288315227247,-1719.8699999999999,13517.425079558745,-1611.5409940538993,-1250.95,333.71237184475558,126.83999084574079
2015-10-18 20:02:50.686,-36.887314,174.66103,12.220000000000001,132.30378297049333,86.928323989920543,-2434.8699999999999,13571.869057102627,-2651.2721387779579,-1211.95,110.04879205643603,278.29824607230159
2015-10-18 20:02:51.374,-36.887314,174.66103,21.550000000000001,102.4397495056799,90.075307499966698,-549.87,14509.819885571816,-1280.7199714475919,-1181.95,-32.641934792040246,596.20288031259315
2015-10-18 20:02:52.032,-36.887314,174.66103,12.69,129.24391393803617,97.719028392516776,-2110.8699999999999,4016.5067269567598,-1324.3886700327444,-1082.95,353.60784793236331,649.19443950225173
2015-10-18 20:02:52.262,-36.887314,174.66103,14.9,138.34242710830455,99.639121642974359,-737.87,11662.63867963156,-2732.1941119477247,-1386.95,475.96040671683772,459.77466398002241
2015-10-18 20:02:52.929,-36.887314,174.66103,16.920000000000002,134.00422993941118,99.934494837095301,-846.87,11253.12563602901,-1979.5586974744374,-1197.95,420.76760297141743,431.86849235581849
2015-10-18 20:02:53.311,-36.887314,174.66103,19.77,135.62948206124042,100.56239255208513,-1928.8699999999999,9546.5283695720209,-1788.49386522755,-1283.95,338.04774547024743,398.74108414168069
2015-10-18 20:02:53.673,-36.887314,174.66103,20.170000000000002,135.04495690157626,101.84556453499293,-904.87,11567.597953347515,-1922.9622166621998,-1225.95,276.3206844623013,449.33525316659205
2015-10-18 20:02:54.187,-36.887314,174.66103,19.890000000000001,134.03430035061825,103.93503177235408,-1600.8699999999999,11655.647599019816,-2343.5038434923895,-1256.95,269.82033566664632,496.05511474103196
2015-10-18 20:02:54.369,-36.887314,174.66103,17.690000000000001,133.3281888745465,105.09813391032812,-824.87,9567.2616687843747,-1874.4364641164073,-1264.95,261.69566526368692,590.60134539484113
2015-10-18 20:02:54.513,-36.887314,174.66103,16.48,122.32426454580119,101.55958203600905,-473.87,10458.789548665414,-3472.3598162815915,-1172.95,409.17176290628851,565.20842070882145
2015-10-18 20:02:55.097,-36.887314,174.66103,15.880000000000001,124.50807105577637,99.271572174362916,-966.87,9440.7013636019437,-2135.517848271099,-1188.95,404.44738286531947,539.93629706975037
2015-10-18 20:02:55.197,-36.887314,174.66103,12.119999999999999,128.2364928910828,93.993601862016504,-381.87,9445.4309103524793,-3825.5754305408664,-1116.95,426.56764441688273,628.63068262425111
2015-10-18 20:02:55.985,-36.887314,174.66103,9.1400000000000006,129.79201315866436,92.081964684845303,-1020.87,10977.625489267768,-4382.3022687143102,-1256.95,467.81784112690605,689.05767387306628
2015-10-18 20:02:56.260,-36.887314,174.66103,-0.39000000000000001,140.5996861650456,80.964559223716435,-30.870000000000001,16225.801767204801,-6513.5216323179257,-1100.95,704.29161861877162,593.21325536719996
2015-10-18 20:02:56.552,-36.887314,174.66103,-1.2,143.73895335986694,76.759573911076387,-1502.8699999999999,7833.7227230321532,-4419.5768774453618,-1162.95,685.04088241336285,469.28017198931502
2015-10-18 20:02:57.032,-36.887314,174.66103,-1.72,146.25338640631048,73.217296895518075,-1286.8699999999999,10810.968833272227,-3779.8459972618639,-1149.95,641.25341884530758,457.08763188168257
2015-10-18 20:02:57.334,-36.887314,174.66103,-2.5,148.51706446256969,68.226599383385064,-803.87,13756.362148102486,-6227.9250852312925,-1142.95,515.32184026517575,491.47131284105762
2015-10-18 20:02:57.567,174.66101,174.66103,-3.0699999999999998,149.35405184035534,66.158084909317395,-1157.8699999999999,9221.0109767343238,-3790.9821740473917,-1198.95,526.44978797469889,472.2575474689574
2015-10-18 20:02:57.886,-36.887333,174.66101,-2.98,150.64115631567594,63.940256676651558,-548.87,9792.8846344589601,-4540.6124293070397,-1209.95,514.49766950159972,438.16727225732262
2015-10-18 20:02:58.118,-36.887333,174.66101,-1.73,151.96098742234113,61.134611323104714,-1322.8699999999999,8685.8310185420796,-4549.6286083956629,-1129.95,511.18309126032329,359.68788916161742
2015-10-18 20:02:58.377,-36.887333,174.66101,-0.16,152.64235495643487,59.193699608604796,-2046.8699999999999,12343.315538346553,-3358.4879838719912,-1197.95,450.09158303526311,374.94657923604382
2015-10-18 20:02:58.622,-36.887333,174.66101,4.6100000000000003,158.60407820014967,59.38305632317028,-922.87,8089.5197755006257,-2925.9343941353686,-1175.95,425.47596973248795,354.18431583033009
2015-10-18 20:02:58.909,-36.887333,174.66101,8.5700000000000003,162.07383763218817,63.53001538780785,-2450.8699999999999,11787.04246115589,-5345.4581053365373,-1230.95,397.20857542680233,335.05438067186998
2015-10-18 20:02:59.369,-36.887333,174.66101,10.27,160.7529892715169,65.382246369114426,-1356.8699999999999,6923.2662203112086,-5370.8486349642872,-1237.95,362.66830304653411,326.39588288663708
2015-10-18 20:02:59.755,-36.887333,174.66101,19.309999999999999,153.77602943875826,68.003244555316215,-864.87,8776.1492808317726,-1375.1307565304319,-1263.95,277.92404851619563,391.66004858342058
2015-10-18 20:02:59.936,-36.887333,174.66101,20.559999999999999,152.90807210030036,69.35688780913793,-1104.8699999999999,10095.350702871337,-869.45140349256917,-1280.95,285.15178694832582,400.47820015598433
2015-10-18 20:03:00.070,-36.887333,174.66101,21.710000000000001,152.37764548634246,70.028935134261047,-1341.8699999999999,12208.109463856292,-2004.4361689768102,-1165.95,275.80781463343783,399.17813039685331
2015-10-18 20:03:00.474,-36.887333,174.66101,23.760000000000002,152.31946612001806,70.649189244553028,-827.87,10497.501554633638,-1121.5043590928867,-1214.95,318.77110743791718,358.06662992075081
2015-10-18 20:03:00.739,-36.887333,174.66101,31.59,153.39266069525854,71.139855530000119,-1846.8699999999999,10915.674276480786,-1526.40135179961,-1183.95,278.1534011443419,117.71854497841372
2015-10-18 20:03:01.080,-36.887333,174.66101,37.310000000000002,153.24054238831758,72.484868548782231,-1437.8699999999999,9857.8412971747221,-687.70630120466558,-1225.95,166.53860319454961,152.27483063858043
2015-10-18 20:03:01.438,-36.887333,174.66101,22.010000000000002,129.29498912102787,76.579582058100101,-881.87,7449.1533425342423,86.647195055189513,-1050.95,36.374556848902223,201.69467522482088
2015-10-18 20:03:01.821,-36.887333,174.66101,19.43,150.96424514739377,72.431288039614429,-2995.8699999999999,9741.9273949850358,-192.27419962145177,-1201.95,73.97791682952662,170.64653006013231
2015-10-18 20:03:02.060,-36.887333,174.66101,25.780000000000001,151.29023039844753,74.789620843969104,-1169.8699999999999,10923.328693609412,-2271.3788077661793,-972.95000000000005,-167.3638812107404,316.86259114334905
2015-10-18 20:03:02.466,-36.887333,174.66101,28.010000000000002,150.5233445832427,78.269618853514174,-2256.8699999999999,6937.5430018813449,-1381.3718304812735,-945.95000000000005,-130.40101828651342,414.25738958990269
2015-10-18 20:03:02.838,-36.887333,174.66101,31.649999999999999,150.2871938430001,82.841230476113239,-2603.8699999999999,14048.055811626054,-5996.8432671230785,-1076.95,-59.39285762390935,335.41678381271566
2015-10-18 20:03:02.984,174.66087,174.66101,35.229999999999997,148.45464636718873,86.107768360310729,-2250.8699999999999,8560.3042372212676,-3036.6953556805156,-1141.95,-116.87449995287912,329.34547463228404
2015-10-18 20:03:03.259,-36.887314,174.66087,38.240000000000002,146.10051208799317,90.663704246110314,-1629.8699999999999,13472.48115259945,-5936.7282782566863,-986.95000000000005,-162.9427954645347,390.46594705070356
2015-10-18 20:03:03.664,-36.887314,174.66087,39.810000000000002,142.9511170057292,96.288125159929919,-740.87,17054.007707675602,-6949.446993095291,-920.95000000000005,-171.49650548271742,474.25039694998287
2015-10-18 20:03:03.942,-36.887314,174.66087,41.560000000000002,136.86728461895183,104.3360306942661,-1288.8699999999999,11913.599960547483,-2604.4896269793439,-989.95000000000005,-128.53015031180038,577.72451121691734
2015-10-18 20:03:04.303,-36.887314,174.66087,41.07,132.8531064549058,108.39091338890671,-546.87,9922.3140201154347,-1070.3252604795689,-1198.95,-76.063231405102215,565.22561444808389
2015-10-18 20:03:04.581,-36.887314,174.66087,36.159999999999997,131.44328771910756,111.49589505265165,-457.87,12051.640471457664,-4344.2783547700656,-973.95000000000005,-36.579114902741736,511.42966158889539
2015-10-18 20:03:04.894,-36.887314,174.66087,35.289999999999999,125.94723481506975,114.82266563025651,-1554.8699999999999,4223.2048677451285,-2768.4509535214561,-1170.95,-38.00987425584438,554.78808554172736
2015-10-18 20:03:05.955,-36.887314,174.66087,17.449999999999999,-180.5642218192998,-29.711551605237638,-1324.8699999999999,11636.102499043358,-4609.8215593184186,-1146.95,119.4488108509687,639.94536640739068
2015-10-18 20:03:06.161,-36.887314,174.66087,27.260000000000002,-180.87573232954645,-26.466145436203341,-1534.8699999999999,7930.7464102502026,-4344.6475499519547,-1202.95,160.46847447348193,592.03516711438135
2015-10-18 20:03:06.838,-36.887314,174.66087,24.390000000000001,-183.50625328577587,-24.673560849959834,-685.87,8805.9248833957263,-4273.6078417412073,-1293.95,204.8575823575523,600.67270734620422
2015-10-18 20:03:07.334,-36.887314,174.66087,24.539999999999999,-178.26424031866213,-24.564932802885515,-685.87,16944.542350627729,-6334.2174947726071,-1068.95,301.44916759393993,520.25463934204447
2015-10-18 20:03:07.630,-36.887314,174.66087,14.76,-167.1088146049845,-25.89871582370283,-4.8700000000000001,14940.324288632628,-4956.385211774199,-1383.95,260.80061519993166,456.27264821741971
2015-10-18 20:03:08.031,-36.887314,174.66087,18.73,-180.61915866714244,-28.706473527300858,-567.87,7605.4510989879573,-3045.8323358160874,-1256.95,281.92103892068945,361.39415907548801
2015-10-18 20:03:08.292,-36.887314,174.66087,19.129999999999999,-180.10526491119117,-29.24351468735685,-1465.8699999999999,15554.294930855291,-4197.9064378532075,-1235.95,263.49753584529446,435.35073102437508
2015-10-18 20:03:08.720,-36.887314,174.66087,18.800000000000001,-180.58339909285027,-28.810978325499022,-760.87,11403.057274659133,-3952.4967359687253,-1273.95,240.21095649500958,466.57148088985531
2015-10-18 20:03:09.084,-36.887314,174.66087,17.34,-180.62462645009975,-28.522707090350217,-626.87,9704.3718182685079,-2476.8298629086239,-1139.95,245.19177145041036,516.92216591379577
2015-10-18 20:03:09.452,-36.887314,174.66087,11.550000000000001,141.88949596184332,117.55640108345457,-1140.8699999999999,12797.557732525189,-2415.7897134652949,-1155.95,277.17876369274813,470.85881467565173
2015-10-18 20:03:10.101,-36.887314,174.66087,11.800000000000001,142.60157443834015,115.49777429763108,-1137.8699999999999,3094.4657097526701,678.21597457218854,-1215.95,299.48952513207536,410.49964036057816
2015-10-18 20:03:10.687,-36.887314,174.66087,23.379999999999999,110.4021507878592,110.09766165280172,-1102.8699999999999,9015.4438423823867,-1195.1109998027355,-1296.95,237.62376789020837,443.63011094115382
2015-10-18 20:03:11.474,-36.887314,174.66087,11.220000000000001,121.19099963431289,112.59806973317072,-1151.8699999999999,6680.0976078857211,-2981.6223949587365,-901.95000000000005,251.46464952499289,506.45072854056843
2015-10-18 20:03:12.191,-36.887314,174.66087,8.3399999999999999,136.26542593728607,110.90202385046902,-1139.8699999999999,15601.097442184007,-4534.2894411891739,-1115.95,237.18978400147341,525.97579484738117
2015-10-18 20:03:12.390,-36.887314,174.66087,6.5,137.03994355259516,109.5613812942386,-1421.8699999999999,12622.28988299686,-5096.6474457818967,-1268.95,272.75273367303089,490.36292342905449
2015-10-18 20:03:12.654,-36.887314,174.66087,6.6500000000000004,136.8824187100256,108.19844845511064,-1151.8699999999999,10798.096241920106,-2862.7558727965079,-1125.95,283.64520402153232,455.9194321758871
2015-10-18 20:03:12.920,-36.887314,174.66087,7.2300000000000004,137.83071618857088,104.87621548733358,-827.87,9994.2833883045187,-2462.9272890729731,-1281.95,270.46883936299292,419.09032121206945
2015-10-18 20:03:13.194,-36.887314,174.66087,13.630000000000001,143.36774444606613,106.62830511851664,-1109.8699999999999,15454.566316351929,-4303.3919982358493,-1311.95,254.94877010062325,426.02771626289712
2015-10-18 20:03:13.722,-36.887993,174.65915,24.350000000000001,126.60944868480033,106.1367533125586,231.13,10499.375929846901,-4057.8961052189993,-1262.95,224.44245895815743,499.90846463809339
2015-10-18 20:03:14.121,-36.887993,174.65915,24.350000000000001,124.72023831413843,110.26520146838951,364.13,2411.6832071496533,505.84122543774868,-1253.95,253.10992868570725,468.47319496500143
2015-10-18 20:03:14.382,-36.887993,174.65915,23.800000000000001,123.67983863204836,112.4947235027069,-590.87,9379.9760223318754,-2139.0438839535491,-1282.95,256.78266724202774,476.68970222155008
2015-10-18 20:03:14.724,-36.887993,174.65915,23.809999999999999,123.89444552053664,112.79876936012545,-2021.8699999999999,16183.084096883964,-4018.9226263367318,-1181.95,259.8537614823332,488.46120935390837
2015-10-18 20:03:15.367,-36.887993,174.65915,23.760000000000002,123.70180864934797,113.62180704811952,-1364.8699999999999,16983.503965329801,-3627.482932134481,-1296.95,252.21794098838961,478.73011253061702
2015-10-18 20:03:15.962,-36.887993,174.65915,3.3100000000000001,120.18195142582184,110.59162468958218,-403.87,10810.751730109832,-2927.562034684709,-1239.95,271.99143556968488,466.60538935672611
2015-10-18 20:03:16.967,-36.887993,174.65915,13.07,118.54226699144346,99.091344912304706,-1614.8699999999999,9625.2326400340153,-970.3920147156191,-1245.95,252.0502805611095,399.93942850019931
2015-10-18 20:03:17.288,-36.887993,174.65915,13.02,118.37485446062973,97.603503171887894,-229.87,22327.680130381032,-5588.0193681382316,-1296.95,277.89014004932483,423.4405276580959
2015-10-18 20:03:17.560,-36.887993,174.65915,10.970000000000001,142.98104610320803,103.69515589087224,-431.87,5655.6513116386086,-433.76078448897329,-1223.95,246.52574967641218,475.79771452423245
2015-10-18 20:03:17.966,-36.887993,174.65915,8.5199999999999996,128.78910611235153,100.54986746277422,-1363.8699999999999,-235.52812239107226,937.71756972072149,-999.95000000000005,280.03533812544185,477.24943143074512
2015-10-18 20:03:18.445,-36.887993,174.65915,9.0999999999999996,129.43136086360747,100.28927422708082,-213.87,13783.548269421994,-1420.5110282971905,-1163.95,260.10218975681573,462.06162065649801
2015-10-18 20:03:18.596,-36.887993,174.65915,14.949999999999999,136.27986783006827,101.72939655880754,-590.87,14637.36988346243,-3274.3234922204924,-1341.95,243.58534503007834,430.01175575393017
2015-10-18 20:03:18.883,-36.887993,174.65915,17.379999999999999,121.66378151319503,100.36615748303579,-1560.8699999999999,10838.359329276729,-1405.308829574521,-1283.95,261.07000102782416,439.7218950238115
2015-10-18 20:03:19.142,-36.887993,174.65915,16.98,121.24021447104552,100.92166712364045,-1309.8699999999999,13383.415210944331,-2558.2713437913249,-1296.95,232.49931242737517,468.92319213363487
2015-10-18 20:03:19.614,-36.887993,174.65915,15.609999999999999,121.1171116831641,100.55994111736523,-1253.8699999999999,9437.9462921338054,-615.02766100213603,-1167.95,257.05205306992025,460.13894902794192
2015-10-18 20:03:20.357,-36.887993,174.65915,14.81,121.73396314217533,101.26285951769039,-1762.8699999999999,15800.637098508949,-3043.9794313074312,-1291.95,230.91690592689091,536.4472322206085
2015-10-18 20:03:20.518,-36.887993,174.65915,13.32,124.87515415494505,100.92534059778401,-607.87,10318.52849511708,-772.04671649899274,-1249.95,289.2665160333305,377.82717358858531
2015-10-18 20:03:21.012,-36.887993,174.65915,18.469999999999999,124.80206909215171,99.961619386231362,-1162.8699999999999,12793.626198135709,-3213.6421704003756,-1236.95,268.81249119589165,261.00408996231971
2015-10-18 20:03:21.305,-36.887993,174.65915,15.6,136.91952760851552,103.16544508439323,-663.87,11336.899239357957,-3789.2909935296539,-1291.95,175.23595372016479,-7.1533854771203167
2015-10-18 20:03:21.692,-36.887993,174.65915,16.710000000000001,127.99891276024297,104.00849355795761,-1883.8699999999999,11947.732629877593,-1594.4936067473818,-1139.95,-32.167216255849134,151.27617326713892
2015-10-18 20:03:22.073,-36.887993,174.65915,21.050000000000001,127.19684665461313,106.3664566539792,-1544.8699999999999,11901.061732026614,-3534.3190698480657,-1289.95,-71.904705306203624,324.579179484495
2015-10-18 20:03:22.466,-36.887993,174.65915,11.09,136.51489285060143,114.3872306247022,-835.87,10914.058406385542,-4671.5413151341254,-1111.95,-162.53165103628359,535.96450704446818
2015-10-18 20:03:22.993,-36.887993,174.65915,26.899999999999999,137.00212586110342,115.40463123089287,-449.87,15280.606320786625,-5319.8933115369782,-1171.95,-125.51204018470196,373.73458251635452
2015-10-18 20:03:23.371,-36.887993,174.65915,4.1500000000000004,142.60362776542314,119.78153383614952,-1502.8699999999999,8129.6924288990795,-2799.3043901121209,-1228.95,-50.755317392086539,291.02767592864524
2015-10-18 20:03:24.107,-36.887993,174.65915,21.120000000000001,133.18918417962126,120.79817141648678,-2576.8699999999999,15138.620144114138,-4718.6064202496909,-821.95000000000005,-156.56018534939054,336.1312225357301
2015-10-18 20:03:24.670,-36.887993,174.65915,27.420000000000002,120.86715701557927,136.43065511449879,-427.87,12762.167832426536,-5638.9381051734717,-1094.95,-121.96386648947765,705.13677089692101
2015-10-18 20:03:24.924,-36.887993,174.65915,19.960000000000001,124.08071249354688,141.68989091355024,-365.87,10104.102885277691,-5297.5062133727633,-1266.95,16.160252198286685,626.96562636949068
2015-10-18 20:03:25.248,-36.887993,174.65915,16.32,122.62305185440101,143.89720273136956,-1729.8699999999999,9181.1288891532295,-5546.536337008527,-1263.95,72.820786130118137,724.31850970922437
2015-10-18 20:03:25.679,-36.887993,174.65915,13.800000000000001,121.74562597876712,144.92896037382638,-2548.8699999999999,11541.307138667356,-3971.5748674733422,-1173.95,205.90922384220082,617.72832372872654
2015-10-18 20:03:26.143,-36.887993,174.65915,11.49,121.07446639851553,144.93565498632398,-1220.8699999999999,14135.130819846763,-6064.24462425603,-1316.95,189.21176777472255,548.51708937421859
2015-10-18 20:03:26.311,-36.887993,174.65915,0.96999999999999997,-192.99972087688772,1.0737511086992555,-1261.8699999999999,14923.696531405965,-5326.850483681852,-1268.95,214.77423479509611,537.09079164344359
2015-10-18 20:03:26.697,-36.887993,174.65915,0.17000000000000001,-192.66977250975677,-0.8161256267064374,-1234.8699999999999,12929.74780123148,-5425.7669203117885,-1296.95,230.7443012260992,550.76401285094801
2015-10-18 20:03:26.966,-36.887993,174.65915,14.710000000000001,-185.67976253667177,-2.4126094431517799,1007.13,9746.504593140482,-1238.1943922064529,-1043.95,278.11266649688577,480.29956811764049
2015-10-18 20:03:27.511,-36.887993,174.65915,13.869999999999999,-185.80697676883571,-1.3193498494893277,306.13,13016.408859233099,-3158.779743236003,-1202.95,259.52150299421066,475.46545603610986
2015-10-18 20:03:27.757,-36.887993,174.65915,12.609999999999999,-186.37912995751086,0.35272692168142328,-1178.8699999999999,8238.5168098788999,-4288.3414125210193,-1227.95,247.92260056264399,464.21976964607586
2015-10-18 20:03:28.016,-36.887993,174.65915,11.74,-186.34303129854996,0.56602691423000806,-1344.8699999999999,8451.5125842489524,-1961.7175064931232,-1232.95,259.61828412131149,473.23148347284121
2015-10-18 20:03:28.321,-36.887993,174.65915,10.85,-186.50929706622296,0.44789269183822,-750.87,9720.9232729098276,-3096.532250631356,-1243.95,254.54869467875912,476.59292109444925
2015-10-18 20:03:28.682,-36.887993,174.65915,10.26,-186.15855606859753,-0.23875186874951737,-800.87,6807.9429275706943,-828.34034788857866,-1274.95,278.65143815267083,447.19806173042417
2015-10-18 20:03:28.950,-36.887993,174.65915,10.26,-76.185934769354446,169.8551392902778,-475.87,3534.4287731818977,5877.2483259008131,-1243.95,250.86794948248934,416.8982637556208
2015-10-18 20:03:29.513,-36.887993,174.65915,7.5999999999999996,101.59490860626688,136.39269131916225,-1249.8699999999999,11969.280433742555,-3063.1394769790722,-1164.95,202.47690692041357,531.63407769248795
2015-10-18 20:03:29.833,-36.887993,174.65915,6.29,99.966840131501158,141.38271066195784,-1599.8699999999999,11173.724822030972,-3029.5646549510839,-1250.95,212.73688685246688,677.11168013284248
2015-10-18 20:03:30.244,-36.887993,174.65915,2.96,98.919197176710753,142.72175668031494,-458.87,10553.299766509221,-1572.5393461520812,-1175.95,284.05140417627194,694.52545683040898
2015-10-18 20:03:30.951,-36.887993,174.65915,1.1499999999999999,96.526522384067462,141.53175359769313,-2665.8699999999999,12577.539107559196,-1935.1632424214358,-1129.95,348.99319993195587,580.0590287214344
2015-10-18 20:03:31.197,-36.887993,174.65915,3.9500000000000002,86.313723804920755,146.02527617822832,-1361.8699999999999,13711.481606954616,-5274.6204450315954,-1214.95,339.29601157553532,555.91437014070277
2015-10-18 20:03:31.478,-36.887993,174.65915,3.5099999999999998,84.643570851698399,149.32058938228687,-662.87,12368.976890837155,-5232.0635748179111,-1266.95,349.53197158774094,546.95752233421808
2015-10-18 20:03:31.876,-36.887993,174.65915,3.4199999999999999,84.444917537349525,150.10807707152284,-1439.8699999999999,9838.3689584055173,-3110.6924398408028,-1233.95,384.92231655850674,525.66143154623092
2015-10-18 20:03:32.523,-36.887993,174.65915,3.5299999999999998,83.717064438583009,152.42253810308415,-716.87,11404.717865652035,-3267.5461958291071,-1200.95,392.69683328637115,552.85622681385803
2015-10-18 20:03:32.937,-36.887993,174.65915,1.8899999999999999,109.82594706083485,152.79996123098562,-1353.8699999999999,19031.540394640193,-4735.72784379324,-1134.95,410.94773166097445,493.21643549531052
2015-10-18 20:03:33.201,-36.887993,174.65915,1.3500000000000001,113.81552259663115,144.56077516413558,-1775.8699999999999,10134.313686329286,-3649.3553381493152,-1199.95,392.21787192437847,470.91862496944407
2015-10-18 20:03:33.721,-36.887993,174.65915,1.53,115.40544609983004,141.27341402577918,-1693.8699999999999,12202.514053671415,-2009.6025395464635,-1175.95,399.26499901576778,442.57540709006764
2015-10-18 20:03:34.127,-36.890213,174.65901,3.3300000000000001,118.7434772990641,134.32030337564998,-109.87,12588.742399830755,-2968.7102835580636,-1178.95,391.21308982006155,380.45321493376883
2015-10-18 20:03:34.391,-36.890213,174.65901,7.3899999999999997,120.19949195760151,131.45504225070442,-1439.8699999999999,8559.0576305869981,-1809.3394798352499,-1248.95,370.27515934711846,274.79999412384655
2015-10-18 20:03:34.684,-36.890213,174.65901,11.07,121.10930537991126,129.51766269661985,-982.87,7847.3123706016167,-1850.4695769460347,-1309.95,362.96359070134815,226.58650053607391
2015-10-18 20:03:35.062,-36.890213,174.65901,15.279999999999999,121.6436032389532,128.93497427402747,-560.87,10485.009484045391,-1504.7718220641373,-1259.95,316.18085646667822,190.53964522901231
2015-10-18 20:03:35.731,-36.890213,174.65901,21.18,121.68710530341349,129.00918728089081,-1157.8699999999999,10363.039806943518,-1851.1522456848497,-1321.95,260.08311411047953,214.51970574890154
2015-10-18 20:03:35.998,-36.890213,174.65901,28.989999999999998,121.29173429725782,130.62884211062811,-977.87,11260.818683461963,-1227.2018559283574,-1212.95,186.50071575653504,228.78962699890951
2015-10-18 20:03:36.117,-36.890213,174.65901,26.27,94.475402679330102,132.52023275175165,-945.87,15770.41500601491,-3265.9718301081143,-1213.95,143.94550501386911,270.81407272573966
2015-10-18 20:03:36.370,-36.890213,174.65901,28.329999999999998,92.050747686485494,135.86166181214986,-1607.8699999999999,9301.3023755342583,-1511.2895870351099,-1212.95,122.79611709975202,304.36557628158937
2015-10-18 20:03:36.771,-36.890213,174.65901,28.75,89.481587367733411,140.31052855060696,-1853.8699999999999,10257.887907944418,-2978.3714249649411,-1186.95,98.356170864206263,413.87214698857315
2015-10-18 20:03:37.294,-36.890213,174.65901,29.690000000000001,86.738049082807208,145.59059461829438,-3044.8699999999999,14612.571554475786,-1472.3318044262696,-1285.95,123.32994448202552,364.37153455513032
2015-10-18 20:03:37.575,-36.890213,174.65901,29.260000000000002,82.469282321634267,152.86155950190545,-1079.8699999999999,9761.7220695557971,-1816.7723285396228,-1208.95,91.136439072025325,456.53214549828914
2015-10-18 20:03:37.832,-36.890213,174.65901,28.390000000000001,80.415063636503987,156.28094330511641,-1584.8699999999999,9374.0007928308351,-1463.8244406372223,-1159.95,73.950133095531285,491.5982386208816
2015-10-18 20:03:38.628,-36.890213,174.65901,27.41,79.063713908963734,158.15240100270859,-1306.8699999999999,12105.964161105792,-287.26455928661744,-1114.95,108.06136586057606,489.49495565158458
2015-10-18 20:03:39.552,174.65938,174.65901,24.690000000000001,75.090412212904894,165.42399461292194,-2111.8699999999999,10577.201163525038,-3271.166651719931,-1219.95,124.24595209919086,508.54906723635389
2015-10-18 20:03:39.830,-36.890728,174.65938,18.030000000000001,84.249508965842978,167.50261114088445,-1931.8699999999999,10200.866630342758,-2147.7965795110986,-1298.95,145.96307586245226,503.22304287936976
2015-10-18 20:03:40.131,-36.890728,174.65938,16.780000000000001,84.824436079196545,165.48126040082695,-1480.8699999999999,11317.185555070455,-3892.2053785873932,-1211.95,140.35471476411487,539.68598688819407
2015-10-18 20:03:40.606,-36.890728,174.65938,14.65,85.290987149267906,163.33479118394655,-2151.8699999999999,12548.178379098097,-3613.2687062181049,-1197.95,149.20183053003782,593.78523404214582
2015-10-18 20:03:40.758,-36.890728,174.65938,12.59,85.020555668065455,163.4987021780093,-52.869999999999997,13112.253979186675,-3542.2777392947637,-1243.95,193.08607522519401,603.74380158650968
2015-10-18 20:03:41.156,-36.890728,174.65938,11.07,85.204063086746856,162.67158366939708,-689.87,12155.421198961398,-1666.5176185206901,-1156.95,211.88375189553159,562.48065396302559
2015-10-18 20:03:41.409,-36.890728,174.65938,13.93,110.08176471186249,166.66102747169822,-674.87,3733.9491196849935,-268.12961157556128,-1070.95,249.14990911452188,611.54422014129568
2015-10-18 20:03:41.792,-36.890728,174.65938,13.93,197.07478702334714,-32.487248570822032,337.13,1768.5453109347043,3299.4722305500422,-1239.95,271.20423563941739,526.10648444135279
2015-10-18 20:03:42.101,-36.890728,174.65938,0.66000000000000003,49.870906061847194,148.37847292842184,-9.8699999999999992,11055.954183239399,-2356.9502954265313,-1218.95,240.6060876433622,509.1137407190605
2015-10-18 20:03:42.326,-36.890728,174.65938,0.73999999999999999,43.015318179845558,161.24053399157003,-1411.8699999999999,11290.044701939341,-1664.1684906316946,-1201.95,258.48587478946064,561.36613981814696
2015-10-18 20:03:42.597,-36.890728,174.65938,0.89000000000000001,35.868395496083117,175.02391152221622,-380.87,12102.567856994005,-2265.0546050494072,-1227.95,276.80765246424323,582.75100509328581
2015-10-18 20:03:43.144,-36.890728,174.65938,-2.1400000000000001,73.318598872329162,187.8645021269279,-1532.8699999999999,8657.6323991934441,-2627.8185663085605,-1245.95,403.19417248652002,475.87047573148561
2015-10-18 20:03:43.419,-36.890728,174.65938,0.33000000000000002,78.626809308914744,174.51888854189841,-693.87,9320.5976102012701,-2225.3236856040403,-1253.95,338.11556240398897,335.18012599233003
2015-10-18 20:03:43.654,-36.890728,174.65938,5.5099999999999998,84.010866928378448,165.61050914100315,37.130000000000003,12580.318677958832,-2298.9685117461026,-1224.95,312.87734723178875,308.1240269586238
2015-10-18 20:03:44.197,174.6599,174.65938,7.6900000000000004,85.778571049032223,160.84720963941567,-839.87,11345.269532244562,-1430.3497186783711,-1334.95,271.83672605586554,346.18539074783087
2015-10-18 20:03:44.913,-36.891083,174.6599,10.77,87.173354579226881,155.7419595080413,-526.87,11295.81271682501,-1673.3189006923803,-1174.95,250.63247212146763,401.66853787455369
2015-10-18 20:03:45.626,-36.891083,174.6599,11.85,87.77160804855491,156.11891147638346,-486.87,4282.6181463659113,-709.45069555072689,-1211.95,229.76047667519228,470.14743831907504
2015-10-18 20:03:46.065,-36.891083,174.6599,15.6,89.045101918752636,156.48003937972075,-743.87,8537.3965533033806,-1443.6664049023077,-1256.95,212.24191221057572,492.21777812386892
2015-10-18 20:03:46.833,-36.891083,174.6599,10.630000000000001,87.471124975216071,154.65921632922539,-1346.8699999999999,11473.01523087205,-1041.6415550360648,-1286.95,272.63687689959386,245.05498108472668
2015-10-18 20:03:47.302,-36.891083,174.6599,22.359999999999999,82.935748535189617,161.25237646282238,-2172.8699999999999,10525.002227550813,-2035.2749610434548,-1274.95,132.95319117182908,162.90592179913864
2015-10-18 20:03:48.063,-36.891083,174.6599,26.969999999999999,81.041882674170893,-114.42993031819044,-1746.8699999999999,11062.960096671679,-3024.962957864137,-1343.95,36.25988053482908,338.66542702732431
2015-10-18 20:03:48.204,-36.891083,174.6599,40.420000000000002,108.26794455888101,-100.35409449043459,-1043.8699999999999,7256.3167843584706,-1021.0937772984207,-1072.95,-40.691962080672624,296.38760875250011
2015-10-18 20:03:48.416,-36.891083,174.6599,40.18,116.46824623749808,-92.405758036831841,-549.87,11730.417272725892,-2467.8400646585765,-1022.95,-62.463951864214792,323.64527668035737
2015-10-18 20:03:48.970,-36.891083,174.6599,36.170000000000002,112.88562481944521,-84.072293944696526,-2218.8699999999999,13933.372759366339,-4207.2506326041512,-1129.95,-80.992242706659866,348.35767111023335
2015-10-18 20:03:49.223,-36.891083,174.6599,27.620000000000001,109.44369393942802,-69.804834051036977,-983.87,10401.348897559497,-1216.5394396557117,-1043.95,-94.194509192120819,394.78718930337072
2015-10-18 20:03:49.633,-36.89132,174.6607,23.449999999999999,108.84212489969588,-63.852110750694862,-2645.8699999999999,12428.576905531556,-2846.7307179091681,-1006.95,-95.860745906245228,422.91588737513553
2015-10-18 20:03:50.011,-36.89132,174.6607,17.629999999999999,108.53557115034523,-56.255925866244056,-1667.8699999999999,11522.161190228999,-4046.2637733322158,-1045.95,-77.034105042548362,442.97972533773333
2015-10-18 20:03:50.565,-36.89132,174.6607,17.57,120.66198718182369,-48.195669404350156,-2260.8699999999999,9055.3480338367153,-3294.1242573845866,-1125.95,-53.103966269428327,427.90164660404781
2015-10-18 20:03:51.143,-36.89132,174.6607,17.57,5.2399850233193845,-129.82557628200766,-2260.8699999999999,6702.6801921718634,6922.7639623539799,-1040.95,-412.32155209139432,126.13797239905054
2015-10-18 20:03:51.482,-36.89132,174.6607,15.56,178.45616617248845,8.3299192683474814,-2010.8699999999999,7177.9278010813923,-3933.6571100520259,-1183.95,40.317861692479198,575.63912343459265
2015-10-18 20:03:51.889,-36.89132,174.6607,13.130000000000001,172.82295711519083,21.71647056869292,-1448.8699999999999,13212.011301307795,-5999.9379022715784,-1267.95,47.519698297687825,667.71590416411141
2015-10-18 20:03:52.171,-36.89132,174.6607,9.5700000000000003,167.38432055162394,34.324663632309658,-1141.8699999999999,10276.310932008158,-4054.5784646112852,-1255.95,143.59346943170044,630.24817805097007
2015-10-18 20:03:52.692,-36.89132,174.6607,7.9100000000000001,165.2016796238602,40.359311806018766,-1607.8699999999999,14813.802134742866,-4722.3827661136975,-1226.95,174.18361078780634,595.76277169098273
2015-10-18 20:03:52.954,-36.89132,174.6607,43.700000000000003,-143.55179830058978,-89.798280633132322,-66.870000000000005,11639.758043860418,-5086.8400463732605,-1439.95,223.12943828556564,550.8817515314588
2015-10-18 20:03:53.221,-36.89132,174.6607,42.979999999999997,-146.03791760649852,-80.95277834118825,-1755.8699999999999,13396.697287253688,-4714.3920701072038,-1211.95,246.51279876295138,517.42702910270998
2015-10-18 20:03:53.461,-36.89132,174.6607,43.060000000000002,-147.81947253147365,-72.066178201129247,-193.87,11409.357457456057,-5286.1703496001583,-1193.95,276.76267499098549,418.46771934264439
2015-10-18 20:03:53.747,-36.89132,174.6607,43.240000000000002,-151.24077792827242,-61.765640866512392,-1651.8699999999999,4304.7760801984932,-1127.9229478784896,-1289.95,235.15431796591801,428.30360393298577
2015-10-18 20:03:54.335,-36.89132,174.6607,5.9199999999999999,149.49383102433225,79.200533367322777,-1792.8699999999999,12283.502919891158,-1740.1998603681736,-1223.95,210.4080150691712,441.55579216521602
2015-10-18 20:03:54.530,-36.89132,174.6607,10.119999999999999,148.8668752870656,72.271476685240543,-646.87,10653.462587337373,-3171.6217109237487,-1298.95,227.52650411192366,470.05065719197415
2015-10-18 20:03:54.816,-36.89132,174.6607,9.9700000000000006,152.82131997517195,63.841330351474596,-1205.8699999999999,9377.1109622475778,-3199.163118488379,-1296.95,226.84903622221776,485.68846513485465
2015-10-18 20:03:55.053,-36.89132,174.6607,10.779999999999999,155.93348845440505,59.010832721119314,-1212.8699999999999,13851.369222495257,-4380.9037924966015,-1212.95,246.97574684504559,496.40833078256452
2015-10-18 20:03:55.441,-36.89132,174.6607,1.47,158.78890431936443,55.073295389469202,-1179.8699999999999,8255.1177413948772,-1592.4234966577042,-1328.95,250.97273724953945,466.14244127463195
2015-10-18 20:03:55.957,-36.89132,174.6607,11.880000000000001,161.41837739792336,53.773152578415811,-1030.8699999999999,12444.096718218327,-5478.1408219055338,-1276.95,263.93952637397865,404.48319720042741
2015-10-18 20:03:56.240,-36.89132,174.6607,14.949999999999999,161.34342497439388,56.072757356243315,-845.87,13332.598036460206,-3679.1079129562727,-1270.95,266.39296301837055,316.85340404403593
2015-10-18 20:03:56.500,-36.89132,174.6607,19.75,160.49290705788485,60.20544646549132,-1904.8699999999999,9180.2350536883805,-1051.8913898454966,-1281.95,240.35153463600429,246.34209993039687
2015-10-18 20:03:57.030,-36.89132,174.6607,22.32,159.6575656607076,62.931910246685185,-680.87,10309.848783202837,-3371.8279885680649,-1230.95,174.48878698964347,309.73846001890507
2015-10-18 20:03:57.990,-36.89132,174.6607,26.879999999999999,157.68659756395476,70.649441248345155,-818.87,7850.616837859814,36.446976719266331,-1257.95,163.14631947250857,323.57133501374034
2015-10-18 20:03:58.275,-36.89132,174.6607,14.390000000000001,124.62380841769533,62.059297252463068,-796.87,10740.184858528202,-2259.617189180844,-1088.95,113.07114500933611,601.17262626160698
2015-10-18 20:03:58.459,174.66151,174.6607,13.27,130.91512691491812,47.641536969863616,-1133.8699999999999,8581.6888800603501,-1432.7948921072161,-1155.95,156.49738589590959,539.04242746535897
2015-10-18 20:03:58.953,-36.890728,174.66151,12.98,136.80497789642561,35.322663019066184,-1923.8699999999999,7923.2163355466182,-2300.6335338613217,-1193.95,178.36615680655262,509.55078697423312
2015-10-18 20:03:59.152,-36.890728,174.66151,14.31,142.67500405870959,21.822896619083494,-1088.8699999999999,8812.6263562134209,-1028.8730158637404,-1265.95,170.77719569294061,426.40989649778896
2015-10-18 20:03:59.395,-36.890728,174.66151,14.32,151.12989912457007,16.532646206741198,-2383.8699999999999,12518.622685487377,-4046.9626777869862,-1176.95,171.185277754754,427.32284174851657
2015-10-18 20:03:59.808,-36.890728,174.66151,14.83,152.29356172734055,13.635287177053385,-1150.8699999999999,4517.2389510700359,-1103.4990149228424,-1216.95,174.9967125449954,453.00304744940104
2015-10-18 20:04:00.055,-36.890728,174.66151,24.920000000000002,176.95489500317908,28.645878140037503,-960.87,16463.832305945827,-3969.1587528082714,-1170.95,147.01966162061228,427.17119460113497
2015-10-18 20:04:00.847,-36.890728,174.66151,25.039999999999999,172.36339252391122,40.143051922444954,-2168.8699999999999,13947.85720042396,-4128.2873438729421,-1168.95,134.75129793928897,483.04146623626116
2015-10-18 20:04:01.368,-36.890728,174.66151,24.449999999999999,162.28776635133906,63.198451663732868,-1613.8699999999999,10931.255558932367,-2888.3214021833192,-1214.95,193.68465717477139,455.60318696766308
2015-10-18 20:04:02.005,-36.890728,174.66151,17.66,142.36656378815661,72.772426200812703,-3150.8699999999999,4792.8116024629326,-1481.8965754386168,-1197.95,172.88047866223761,460.52112926283377
2015-10-18 20:04:02.786,-36.890728,174.66151,6.4000000000000004,151.70702755181654,64.055228446961081,-1019.87,7290.216303106743,-3508.4650448474845,-1316.95,187.2810895062172,500.08907597883427
2015-10-18 20:04:02.991,-36.890728,174.66151,5.5199999999999996,152.01448085063231,53.173377847497449,-1353.8699999999999,12445.260230226209,-3118.1688631230136,-1169.95,232.47341060045363,552.18182129058994
2015-10-18 20:04:03.299,-36.890728,174.66151,5.0499999999999998,153.01941060036378,50.435090755517379,-617.87,11347.585675550452,-2775.38675738035,-1253.95,239.28506033082118,508.60887753014617
2015-10-18 20:04:03.730,174.66148,174.66151,19.52,153.52739860321881,47.901861948450133,-808.87,11842.920294558853,-2037.2671090767703,-1167.95,242.87396867350165,477.430042771486
2015-10-18 20:04:03.878,-36.889793,174.66148,13.06,155.90195580457578,45.677209594152117,-531.87,7669.0857763678687,-1197.9320062975405,-1324.95,252.50027772974292,420.55004475853133
2015-10-18 20:04:04.416,-36.889793,174.66148,12.31,149.1847933336322,44.06577286286327,-1713.8699999999999,9573.2795148399437,-3149.9300099757547,-1273.95,240.61903855682297,467.48442614058297
2015-10-18 20:04:04.729,-36.889793,174.66148,12.460000000000001,152.14372736644799,37.764724585834728,-1035.8699999999999,7322.3898089866416,-1605.9735558995321,-1172.95,255.44068237607672,466.3360035288336
2015-10-18 20:04:04.974,-36.889793,174.66148,12.550000000000001,153.49502765125311,34.962192241635009,-1549.8699999999999,10149.324427140886,-2559.6137735293869,-1246.95,221.35040716444198,478.28812200193289
2015-10-18 20:04:05.233,-36.889793,174.66148,8.6999999999999993,157.86001507473043,33.528670427052177,-512.87,13632.736156973053,-2485.6967899081355,-1258.95,219.63731106998603,579.8266137268505
2015-10-18 20:04:05.489,-36.889793,174.66148,8.0700000000000003,159.03840442210011,30.867918926816635,-34.869999999999997,12551.028862937455,350.64563124453525,-1222.95,276.39156376248059,530.35990976027836
2015-10-18 20:04:05.712,-36.889793,174.66148,11.130000000000001,145.94257801598394,26.985789261173039,392.13,8452.5277339119457,-1055.2165580815067,-1187.95,316.91931510954032,442.1414232013326
2015-10-18 20:04:05.994,-36.889793,174.66148,12.82,148.72085862119621,20.647804023047179,-469.87,13126.419591681286,-2515.6890507623739,-1178.95,270.81404876457628,390.45675995139038
2015-10-18 20:04:06.314,-36.889793,174.66148,19.649999999999999,125.19797062223032,11.250451194292417,-1094.8699999999999,13639.353543001509,-1904.8300149914157,-1333.95,231.85575300454005,452.78052100184004
2015-10-18 20:04:06.524,-36.889793,174.66148,18.879999999999999,140.8209459205643,2.2745087464128346,-702.87,9079.7364329940137,-612.64086083212169,-1272.95,250.2743118064235,471.93141371371024
2015-10-18 20:04:06.923,-36.889793,174.66148,20.039999999999999,143.55067582942718,-4.150899771701738,-1319.8699999999999,13202.191241700839,-69.672767690382898,-1208.95,264.19596128841039,429.56175858529679
2015-10-18 20:04:07.183,-36.889793,174.66148,7.2300000000000004,157.72254378738464,-6.8418770258268466,-1227.8699999999999,9730.4671887873901,-186.05618756715057,-1247.95,163.58949046055665,674.98249533662386
2015-10-18 20:04:07.434,-36.889793,174.66148,13.09,169.92981799548886,0.91496230525081046,-1467.8699999999999,8634.0072141861037,-1276.542557998871,-1320.95,211.61248416056526,816.72448656042786
2015-10-18 20:04:07.692,-36.889793,174.66148,4.9199999999999999,168.16692230752574,7.2358165824321077,-1832.8699999999999,14747.282431888099,-1389.0552800823425,-1279.95,295.39198978633306,918.38566123936789
2015-10-18 20:04:08.291,-36.889793,174.66148,-0.11,168.45748706895603,10.016458975731723,-844.87,11594.170403321314,687.44213992748155,-1063.95,512.4584396518967,815.88124015051562
2015-10-18 20:04:08.550,-36.889793,174.66148,-2.2400000000000002,170.01197827793783,10.974194367788584,-489.87,9634.8549628400524,1070.3363873270969,-1127.95,562.58353586183841,609.45576999253319
2015-10-18 20:04:09.281,-36.889793,174.66148,12.460000000000001,154.38377317148439,2.3673363376695917,-813.87,13587.589292363728,-1371.2557817717925,-1096.95,703.74672223011112,337.14353226834237
2015-10-18 20:04:09.553,-36.889793,174.66148,0.78000000000000003,183.23438574089454,-18.385915320077814,16.129999999999999,11631.366827559947,-3208.9352065347239,-1213.95,422.48187952523722,712.60869477773213
2015-10-18 20:04:09.950,-36.889793,174.66148,-2.8100000000000001,184.33732344726704,-18.035303831586987,456.13,10057.522455524424,-1659.819687081088,-1182.95,548.89736374087329,667.05515100201387
2015-10-18 20:04:10.217,-36.889793,174.66148,9.8100000000000005,172.21200473619419,-25.65692742206344,-2480.8699999999999,2469.1697937521344,418.80506995742292,-1267.95,592.68482730892856,679.24769110964633
2015-10-18 20:04:10.497,-36.889793,174.66148,12.67,189.72912834701532,-36.787470104395339,-2976.8699999999999,25379.90855222772,-4829.550739339862,-1124.95,709.21450518745382,520.90996921897647
2015-10-18 20:04:11.001,-36.889793,174.66148,28.170000000000002,221.40948745639383,-67.54705148485013,-918.87,13730.398202764827,-4925.9900355677146,-998.95000000000005,578.4747163527129,490.6261845240715
2015-10-18 20:04:11.412,-36.889793,174.66148,25.98,233.64017065262794,-84.15141803565102,-598.87,12991.80121843073,-7374.7588067530578,-1075.95,548.79752024733466,524.70350882224557
2015-10-18 20:04:11.523,-36.889793,174.66148,24.079999999999998,-229.98484568470849,81.73251345322025,-1969.8699999999999,8085.6376838462611,-4654.8614976780218,-1217.95,559.79972263639775,446.39673042733205
2015-10-18 20:04:12.060,-36.889793,174.66148,23.460000000000001,-218.66400653444845,68.511382603934337,321.13,17626.540236655263,-6960.0065035079606,-1139.95,543.83460047890617,339.61604455907042
2015-10-18 20:04:12.475,-36.889793,174.66148,-1.74,-211.09316814363473,34.445290869481127,-1481.8699999999999,10040.185648720369,-5465.0042338711428,-1174.95,432.84734867205054,287.35870118647239
2015-10-18 20:04:13.120,-36.889793,174.66148,1.3799999999999999,-203.81766308443986,17.017085966691212,-1556.8699999999999,8957.4912111918311,-5478.3367109389219,-1307.95,338.14146423091051,251.92149683537502
2015-10-18 20:04:13.390,-36.889793,174.66148,4.1699999999999999,-197.96836129084451,5.6220928325360973,-638.87,13870.218223807784,-5590.934666131453,-1211.95,262.3071981267251,400.83141619751689
2015-10-18 20:04:13.574,-36.889793,174.66148,4.29,-196.52165503668411,1.4053830945800883,-1923.8699999999999,9393.9249765362038,-3504.6157153401687,-1198.95,266.90088857372251,460.11799147453189
2015-10-18 20:04:13.821,-36.889793,174.66148,4.2000000000000002,-194.77077341597055,-2.6096403860794766,111.13,7912.3622389268439,-3393.3284540410427,-1266.95,251.90664005367708,475.58319471662077
2015-10-18 20:04:14.060,-36.889793,174.66148,38.399999999999999,-159.16287791900601,-2.4333500651551745,-1801.8699999999999,11439.191723993983,-4435.2702869957739,-1447.95,242.69335733276074,440.26867331954577
2015-10-18 20:04:14.487,-36.889793,174.66148,37.280000000000001,-161.25638833884383,1.3189844244699884,-366.87,15656.724394607412,-6644.7121197690094,-1485.95,256.46335966736598,422.06463432527403
2015-10-18 20:04:14.974,-36.889793,174.66148,34.950000000000003,-164.86364300881084,6.9140012918262599,-1771.8699999999999,14844.371318545564,-4766.7170079774878,-1231.95,236.80265949307005,534.91168510045577
2015-10-18 20:04:15.270,-36.889793,174.66148,33.810000000000002,-164.36684257566267,10.115436802596975,-1371.8699999999999,9595.3983734960893,-1821.292077320003,-1282.95,244.75472519523771,454.68223507698616
2015-10-18 20:04:16.060,-36.889793,174.66148,33.560000000000002,-163.12447879893617,10.791256487333897,-1404.8699999999999,10945.24244199331,-2136.5871625066638,-1260.95,261.85720095809171,380.22079993918487
2015-10-18 20:04:16.218,-36.889793,174.66148,31.789999999999999,-174.62995553630813,9.6245067087641303,-1400.8699999999999,5171.9012412528919,120.93811527720936,-1140.95,236.90132252724473,294.98463313339289
2015-10-18 20:04:18.079,174.66142,174.66148,35.020000000000003,-195.30820087906983,11.849808833095736,-1077.8699999999999,11365.377167221051,-1667.1717679382587,-1205.95,212.17597718390795,318.08565686942535
2015-10-18 20:04:18.420,-36.888973,174.66142,45.229999999999997,-194.77495568781492,21.782066862668046,-2039.8699999999999,14342.166197536308,-3341.7236688940802,-1222.95,170.85796354014298,321.21962376996083
2015-10-18 20:04:18.691,-36.888973,174.66142,47.329999999999998,-193.73247205497751,22.39044821943871,-141.87,11501.658424104153,-3851.9839839015349,-1243.95,143.3389164243425,367.47653726230652
2015-10-18 20:04:19.202,-36.888973,174.66142,49.460000000000001,-192.6905370823429,22.77951314050064,-1029.8699999999999,9650.4371691753986,-2533.7776778553198,-1187.95,137.9580260470776,367.69105706991826
2015-10-18 20:04:20.294,-36.888973,174.66142,30.52,-203.09842619175873,26.386221374625407,-1771.8699999999999,12716.680480253082,-2966.7487591891254,-1286.95,99.664247263286512,456.0063247559649
2015-10-18 20:04:20.580,-36.888973,174.66142,12.449999999999999,99.898501912674362,187.33520602279594,-2890.8699999999999,17796.464389075692,-5788.3513569634661,-1093.95,260.33766711783744,477.29134653756512
2015-10-18 20:04:21.252,-36.888973,174.66142,14.699999999999999,106.63284256293706,174.67087990546071,-2000.8699999999999,5630.5061137793618,12.335302721639891,-1307.95,206.60458691887905,467.35373654661134
2015-10-18 20:04:21.474,-36.888973,174.66142,12.960000000000001,108.04084115637366,159.53807646522267,-756.87,8632.1394085778302,-1295.4240648828486,-1337.95,189.35540828215494,472.87332315779713
2015-10-18 20:04:21.772,-36.888973,174.66142,12.279999999999999,112.84143329843735,147.59764033057684,-1236.8699999999999,11743.354618645319,-3593.0767620163192,-1261.95,181.38238502657728,543.25393767746448
2015-10-18 20:04:22.074,-36.888973,174.66142,11.35,118.1432081407946,134.41345345686528,-1326.8699999999999,9530.5601850480907,-2039.8601658388486,-1304.95,215.66622249241374,526.833874077828
2015-10-18 20:04:22.329,174.66197,174.66142,9.9299999999999997,113.66835403610909,144.05684916282794,-1396.8699999999999,14434.995568281514,-2756.6743479586144,-1242.95,227.44573626472129,575.24092991980228
2015-10-18 20:04:22.666,-36.88887,174.66197,9.0999999999999996,118.55751622130222,133.43756984985771,-163.87,13710.285401078769,-2973.8382803989884,-1350.95,254.3631390645067,532.53901630326629
2015-10-18 20:04:22.935,-36.88887,174.66197,9.1500000000000004,121.96335545683561,125.15652769915583,-1066.8699999999999,11827.83561208064,-3352.6189450334205,-1263.95,259.40376431369975,467.8505930955763
2015-10-18 20:04:23.551,-36.88887,174.66197,9.5,124.12896430912502,119.96864390141269,-1491.8699999999999,15538.59284735676,-2988.1868651530694,-1291.95,265.57986126118146,459.61312828561768
2015-10-18 20:04:24.074,-36.88887,174.66197,9.8200000000000003,119.4713916451594,129.11413004922792,-1737.8699999999999,11511.712848891853,-1655.9081863612523,-1140.95,270.74623183083469,454.01771810074104
2015-10-18 20:04:24.232,-36.88887,174.66197,10.6,122.16666887566981,123.13337084569096,-981.87,9794.6653250511026,-3083.4896379332258,-1311.95,254.44390691170906,427.34874357543811
2015-10-18 20:04:24.359,-36.88887,174.66197,8.6899999999999995,125.31801138506945,113.7308424416684,-1207.8699999999999,8477.6717513118292,-1883.5913394389506,-1316.95,254.81808050665163,460.04216790084104
2015-10-18 20:04:25.185,-36.88887,174.66197,9.4399999999999995,132.17335205339552,96.213408145482362,-391.87,13388.197519372019,-2410.3452489800902,-1188.95,263.37979716478361,427.73586808384152
2015-10-18 20:04:25.573,-36.88887,174.66197,10.27,149.47961307743375,58.207158273022515,-1480.8699999999999,14707.971142522585,-2971.7983491015762,-1281.95,242.25937344402581,522.61435722577312
2015-10-18 20:04:25.707,-36.88887,174.66197,10.85,156.38637725225786,42.290022581153629,-1606.8699999999999,11425.83570601801,-2504.7598320166189,-1206.95,283.93554740283491,449.21751448608114
2015-10-18 20:04:25.972,-36.88887,174.66197,11.68,163.28898054006436,26.896797842614824,-818.87,10245.181574124155,-742.54706936791717,-1242.95,264.3895235426121,425.09381345875948
2015-10-18 20:04:26.363,-36.88887,174.66197,29.359999999999999,167.85284744813478,10.732008365315103,-1995.8699999999999,12983.217175463311,-1865.6628451449888,-1021.95,286.39699068717601,413.0658714119694
2015-10-18 20:04:26.819,-36.88887,174.66197,32.600000000000001,178.65479844340604,-11.056721627407256,-971.87,13805.529834739638,-1349.280341187025,-1209.95,265.27350459998047,363.35874581086409
2015-10-18 20:04:27.062,-36.88887,174.66197,38.5,190.60107463509829,-33.812674368433207,-586.87,13604.270256139655,-2407.2513152793003,-1234.95,251.79078328024005,230.27525237229295
2015-10-18 20:04:27.960,174.66376,174.66197,44.509999999999998,198.48575692494219,-47.408673235313927,-449.87,12981.58672912313,-2107.0077055516936,-1224.95,249.47792477684283,97.675664569225958
2015-10-18 20:04:29.145,-36.887688,174.66376,30.620000000000001,188.36471924031102,-58.362466924546723,-1752.8699999999999,12747.133584846286,-1634.1687021491612,-1132.95,79.508572447099411,383.95947352217314
2015-10-18 20:04:29.249,-36.887688,174.66376,16.309999999999999,-122.32788567005824,-165.70524429689351,-2334.8699999999999,10406.626403065131,-2505.9416840835847,-1119.95,51.424851848592368,546.57652255869016
2015-10-18 20:04:29.416,-36.887688,174.66376,16.300000000000001,-129.34436340776861,-148.80751545079664,-1287.8699999999999,14818.118911733678,-3695.7731200278977,-1185.95,84.152184640866082,514.42186988907224
2015-10-18 20:04:29.844,-36.887688,174.66376,16.079999999999998,-136.81095824301397,-131.76047284610161,-1033.8699999999999,8541.511761400041,-464.06696377225035,-1185.95,93.77354942359581,550.6493365368749
2015-10-18 20:04:30.237,-36.887688,174.66376,16.710000000000001,-146.20566665622496,-109.00315196180721,-1449.8699999999999,10393.488891146973,-2667.6587387828349,-1162.95,120.1022588208269,469.87310821767096
2015-10-18 20:04:30.376,-36.887688,174.66376,18.23,-150.54020694568496,-98.497426833142924,-964.87,10163.708323257255,-2003.0303534273212,-1171.95,152.0263784029346,394.2632504681203
2015-10-18 20:04:30.611,-36.887688,174.66376,22.0,-153.1950763020115,-90.034054650564741,-1698.8699999999999,6125.4710244546804,-377.59640565839709,-1149.95,154.05571970561459,202.76421189644171
2015-10-18 20:04:31.407,-36.887688,174.66376,26.239999999999998,-154.67108771716499,-83.497336031690551,-744.87,14221.164331705444,-3710.4438181474798,-1185.95,104.61797993240182,207.33694479002909
2015-10-18 20:04:31.701,-36.887688,174.66376,27.59,158.85481659562382,74.67676843818785,-592.87,11487.608445946924,-3011.0424888415146,-1166.95,6.9229495575225997,437.21665472557657
2015-10-18 20:04:32.068,-36.887688,174.66376,27.93,159.85749045721525,73.952927898233597,-383.87,11282.452900895349,-3514.1172370992572,-1147.95,17.658828485130897,520.04624426730823
2015-10-18 20:04:32.337,-36.887688,174.66376,30.300000000000001,161.05907665142476,73.274185960612911,-405.87,12615.414915734149,-1838.1765260366956,-1100.95,47.050625482718203,399.5633729981829
2015-10-18 20:04:32.732,174.66376,174.66376,31.719999999999999,160.95454122956221,74.684282533751073,-2092.8699999999999,11063.712207675711,-3434.96226802092,-1147.95,44.429528411046178,408.40248212415662
2015-10-18 20:04:33.004,-36.887688,174.66376,33.899999999999999,160.45202100966455,77.033744903867699,-952.87,9599.3362550545007,-2356.4906321469307,-1161.95,23.826918792663378,460.33062937506975
2015-10-18 20:04:33.343,-36.887688,174.66376,34.880000000000003,159.41237956331145,79.384095018855845,-1714.8699999999999,13544.294887390946,-5207.5562906602772,-1160.95,38.6485626119171,459.18220676332044
2015-10-18 20:04:33.553,-36.887688,174.66376,34.909999999999997,158.03390049651858,82.075896546163136,-1671.8699999999999,7911.3690048405688,-2285.4796315539452,-1231.95,39.182389994190601,519.18816503686139
2015-10-18 20:04:34.181,-36.887688,174.66376,34.119999999999997,156.39592551443792,84.564076193631934,-1134.8699999999999,11865.697288882769,-3596.2816082170339,-1036.95,31.520667673325477,592.71569737052505
2015-10-18 20:04:34.505,-36.887688,174.66376,17.489999999999998,152.66382319051081,87.277268454371651,-1251.8699999999999,9873.562901191699,-4894.3284414933714,-1199.95,64.128379878014499,790.63926116416781
2015-10-18 20:04:35.112,-36.887688,174.66376,11.460000000000001,152.61820655163882,85.811008203850591,-2079.8699999999999,9749.9667981393941,-3332.9671753828402,-1210.95,176.06742967598012,717.60057873951996
2015-10-18 20:04:35.503,-36.887688,174.66376,5.5499999999999998,152.83792331934501,83.236552039533791,-1508.8699999999999,9327.3252072819432,-686.06973013161041,-1240.95,255.41478054915521,549.59463268578861
2015-10-18 20:04:35.823,-36.887688,174.66376,4.4199999999999999,153.68066812202156,80.371001272654667,-1739.8699999999999,7693.2612810490336,-1383.9952884716731,-1224.95,279.93855699834103,479.48340399401371
2015-10-18 20:04:36.027,-36.887688,174.66376,6.7000000000000002,136.38741994156371,72.180954424858882,-1002.87,12659.431731930352,-2099.9254895340705,-1309.95,258.87794357137551,459.32278490431514
2015-10-18 20:04:36.399,-36.887688,174.66376,7.0499999999999998,139.63805848447339,63.830538323648717,-571.87,11388.084240268096,-1302.7099882772955,-1284.95,286.19047751951354,459.16313111698418
2015-10-18 20:04:36.814,-36.887688,174.66376,7.9900000000000002,141.78969882790048,58.526875077124018,-1190.8699999999999,14506.357903008959,-808.16942951928741,-1324.95,276.25781180207127,419.78874665518538
2015-10-18 20:04:37.081,-36.887688,174.66376,9.9199999999999999,144.23309312415657,52.104918653025265,-1085.8699999999999,10515.504247169814,-2776.9668029621066,-1250.95,279.09342868135502,416.33052790647656
2015-10-18 20:04:37.603,-36.887688,174.66376,11.460000000000001,145.13966402798459,49.782715131295859,-1252.8699999999999,5270.6867658528017,-216.77392201124826,-1203.95,264.11213107477033,390.1664165700879
2015-10-18 20:04:37.937,-36.88636,174.66348,14.460000000000001,150.13687720074543,51.370184975414332,-2311.8699999999999,11390.656117040708,-2002.6966920437785,-1256.95,237.427143269569,303.51244132465411
2015-10-18 20:04:38.301,-36.88636,174.66348,17.32,149.60077322829608,52.324487092526113,-2286.8699999999999,12890.617157346251,-2724.6536696854619,-1219.95,219.14728070160641,301.82524705711973
2015-10-18 20:04:39.086,-36.88636,174.66348,23.359999999999999,148.84935357435663,53.784989918156207,-1338.8699999999999,14258.24729422891,-2840.87676846673,-1270.95,198.11256910156246,198.40599881046603
2015-10-18 20:04:39.787,-36.88636,174.66348,30.850000000000001,147.82790978568929,59.035213969241354,-1338.8699999999999,14001.739344415515,-3284.8504970617109,-1093.95,65.557958771753249,365.00214306450459
2015-10-18 20:04:40.005,-36.88636,174.66348,9.9000000000000004,160.7007156582888,67.998688126417676,-1879.8699999999999,11440.93662421218,-2708.673937143491,-1189.95,53.373425304070011,460.26775671483972
2015-10-18 20:04:40.394,-36.88636,174.66348,8.9199999999999999,158.45241189230185,75.307458896926818,-493.87,10776.257615662185,-2389.658552572469,-1119.95,55.000809277812039,557.0270023785074
2015-10-18 20:04:40.684,-36.88636,174.66348,13.779999999999999,149.30596494769273,76.827264242834758,-437.87,13654.464572178756,-3917.181290687884,-1114.95,57.310605414771516,545.04097543853743
2015-10-18 20:04:41.127,-36.88636,174.66348,13.4,148.9426918462793,78.154567016805146,-2081.8699999999999,11597.707473870611,-3423.9143867108896,-1087.95,98.952870906709805,503.42461177352072
2015-10-18 20:04:41.841,-36.88636,174.66348,13.970000000000001,148.45699412632189,79.755753365993826,-1310.8699999999999,13368.899667210682,-5085.3412476503599,-1183.95,126.37513689540944,459.40167084444363
2015-10-18 20:04:42.529,-36.88636,174.66348,22.25,149.32980934020557,80.890739534373481,-1089.8699999999999,10698.648783698734,-3408.7001950980666,-1101.95,121.93003122935596,231.36386469024995
2015-10-18 20:04:42.699,-36.88636,174.66348,25.32,148.27815382660287,85.546920445883359,-1279.8699999999999,13900.072267439755,-5112.4644621700982,-1091.95,42.577736082669361,492.47727540473841
2015-10-18 20:04:43.287,174.66348,174.66348,26.329999999999998,147.69721027008916,87.532721187182744,-1084.8699999999999,14158.749212813058,-2838.0251383075479,-1144.95,60.517333522560136,429.69056627219459
2015-10-18 20:04:43.559,-36.88636,174.66348,24.120000000000001,147.22735543420731,92.186078731279096,-1322.8699999999999,13500.579962594089,-3754.1950123299362,-1201.95,86.433016584466301,441.10885736302032
2015-10-18 20:04:43.840,-36.88636,174.66348,25.629999999999999,146.90287485003373,93.892189029734155,-2548.8699999999999,14130.688075099439,-5527.7250421165609,-1217.95,72.343706675199272,404.68782846101607
2015-10-18 20:04:44.459,-36.88636,174.66348,27.050000000000001,146.91273191461354,95.462954078453365,-1416.8699999999999,15292.545967357917,-4241.9232540494086,-1153.95,65.974047473515881,417.39323839751199
2015-10-18 20:04:44.787,-36.88636,174.66348,28.16,146.78373038811293,99.304758160673146,-1071.8699999999999,13226.771252926184,-5648.3541372479021,-1037.95,50.613631998477103,451.64316739647768
2015-10-18 20:04:45.200,-36.88636,174.66348,26.449999999999999,144.68749548633178,104.33744126579258,-539.87,12773.834329355786,-4069.031135684706,-1138.95,67.028751324602098,579.03446952307138
2015-10-18 20:04:45.686,-36.88636,174.66348,23.82,142.7778315698441,107.58046203755229,-1474.8699999999999,10788.928159108502,-4356.0093496910231,-1135.95,86.982857246638275,604.07111580112075
2015-10-18 20:04:45.887,-36.88636,174.66348,19.25,140.96051005609968,110.37184924030321,-702.87,12349.458205838817,-2332.694501909818,-1209.95,105.11907930716842,681.40207628507653
2015-10-18 20:04:46.228,-36.88636,174.66348,18.920000000000002,143.73329926916736,111.86320432206462,-894.87,11616.730961791001,-4885.9551203798737,-1186.95,161.49421413120891,692.34941265385885
2015-10-18 20:04:46.883,-36.88636,174.66348,16.34,142.55645701693584,113.31975583621119,-1821.8699999999999,13452.609696431691,-6304.6482766663576,-1228.95,180.5871784563605,551.27688267981148
2015-10-18 20:04:47.313,-36.88636,174.66348,15.130000000000001,-180.57764166795931,-29.608014618310484,-883.87,12959.975317010685,-4294.6315184744071,-1245.95,227.72312873256308,610.16832680847392
2015-10-18 20:04:47.400,-36.88636,174.66348,-2.8700000000000001,-178.36970112353765,-28.4458190442787,-1389.8699999999999,11286.2650371333,-4108.4088049489983,-998.95000000000005,265.56196607420918,594.34990752485248
2015-10-18 20:04:47.933,-36.88636,174.66348,-5.1299999999999999,-178.29857050235708,-29.903708078029382,-319.87,11088.440136373833,-4315.7281447113719,-1175.95,264.31676233535899,581.76223626886724
2015-10-18 20:04:48.209,174.66177,174.66348,27.460000000000001,133.87733118272862,108.99113310444109,-1076.8699999999999,16232.966410540645,-4912.0277460086863,-1114.95,279.97246546521183,447.70292491933844
2015-10-18 20:04:48.659,-36.886497,174.66177,19.57,130.64510466315539,110.12043010973568,-1893.8699999999999,11814.850705333172,-1534.0006804718996,-1228.95,298.5765798813477,410.90772242239154
2015-10-18 20:04:49.006,-36.886497,174.66177,21.109999999999999,130.31738156050005,111.44171644054592,-1294.8699999999999,14358.230684175684,-4094.841808543506,-1250.95,261.73946227758086,372.60593699865126
2015-10-18 20:04:49.260,-36.886497,174.66177,17.399999999999999,132.74050827727717,111.68141816027457,-559.87,15848.615337171756,-4688.7429670823503,-1247.95,259.19418877959959,369.36223805755418
2015-10-18 20:04:49.540,-36.886497,174.66177,7.4100000000000001,117.27729968069852,107.6064114242438,-589.87,9612.4403375174406,-1160.7426306755483,-1192.95,232.45739732055515,449.2255211260304
2015-10-18 20:04:49.831,-36.886497,174.66177,7.6500000000000004,117.7934493247898,105.05492371216201,-2241.8699999999999,11507.234057194986,-3474.3877546888525,-1266.95,229.91212382257393,445.98182218493326
2015-10-18 20:04:50.056,-36.886497,174.66177,5.2199999999999998,122.51990373627314,102.66571281812818,-310.87,11482.234159314188,-1719.4062718503724,-1337.95,220.02937985190096,477.78325881301862
2015-10-18 20:04:50.449,-36.886497,174.66177,3.6800000000000002,123.24244918488131,99.505455221871884,-830.87,3876.713565764031,1261.7982667689525,-1172.95,226.62957214109451,573.41503941834696
2015-10-18 20:04:50.775,-36.886497,174.66177,10.77,118.33818130791818,88.594238214086374,-708.87,18590.089356658307,-1623.6592421932173,-1244.95,218.82114694635925,578.00072322539518
2015-10-18 20:04:51.150,-36.886497,174.66177,9.4199999999999999,117.22022721501286,88.620289052004111,-2010.8699999999999,10912.777189836692,-2792.4331866635594,-1134.95,249.29354962195433,535.90045392487423
2015-10-18 20:04:51.547,-36.886497,174.66177,8.8399999999999999,116.49567788205681,88.427861756349515,-665.87,7518.1069615149545,-337.40751654398946,-1192.95,265.47012922061987,503.47641542736386
2015-10-18 20:04:52.009,-36.886497,174.66177,0.81999999999999995,130.27281057493798,93.260792002353952,-11.869999999999999,16232.783917292831,-4711.4960360568321,-1253.95,247.16436482573576,585.04785031678443
2015-10-18 20:04:52.341,-36.886497,174.66177,-1.02,129.44174075484227,93.502707181964581,-1561.8699999999999,9081.6223562253181,-2350.7183744354606,-1207.95,284.39355121141756,521.30628082669296
2015-10-18 20:04:52.590,-36.886497,174.66177,9.0600000000000005,116.6740566024496,88.102314475434696,-845.87,17498.780218358432,-1820.4468552769176,-1240.95,296.9861667409142,426.95361242708555
2015-10-18 20:04:53.463,-36.886497,174.66177,9.2400000000000002,116.27395723000272,87.649633028755431,-1211.8699999999999,8628.3305912819142,2067.925826655468,-1223.95,301.81533454893327,501.46991358516766
2015-10-18 20:04:53.533,174.66109,174.66177,3.6299999999999999,108.27828288063664,84.218001973573507,-604.87,5892.5520244025683,1341.0718984115663,-1306.95,309.86418137820181,419.0064909984294
2015-10-18 20:04:53.759,-36.887447,174.66109,-0.050000000000000003,111.87363417341798,78.968178254485835,-1836.8699999999999,11316.614089546703,801.65025121495091,-1247.95,321.53890738345928,418.16936932139254
2015-10-18 20:04:54.696,-36.887447,174.66109,5.1900000000000004,122.52466529198465,77.04746585765902,-416.87,-3981.586894011265,4787.5644081764294,-1210.95,268.8993837759694,444.98504672056561
2015-10-18 20:04:55.143,-36.887447,174.66109,5.1900000000000004,120.3402360706977,-80.416622550619167,-416.87,-5995.5983779945936,-1681.2516904939016,-931.95000000000005,-146.71495537627078,762.20533589961371
2015-10-18 20:04:55.343,-36.887447,174.66109,7.3700000000000001,111.66664505607969,68.404052379369446,-666.87,7896.2560937562466,-35.435276453682491,-1306.95,332.80060705339184,509.5267670543854
2015-10-18 20:04:56.613,-36.887447,174.66109,8.6699999999999999,112.92816728728585,65.802367990329799,-840.87,11192.358858663776,-1000.5319364670358,-1121.95,357.67759954411025,462.26012718421123
2015-10-18 20:04:56.797,-36.887447,174.66109,12.58,115.52040674833681,59.096430727234491,-397.87,12995.355550998373,-2507.4904386927969,-1182.95,384.27875713567158,509.5187604144362
2015-10-18 20:04:57.081,-36.887447,174.66109,13.9,116.57398607988787,58.307716208458281,-889.87,10013.0403303274,-2141.6094135572303,-1223.95,406.77012991573969,486.32095555130286
2015-10-18 20:04:57.319,-36.887447,174.66109,13.710000000000001,117.37753803332718,57.637265421208475,-1166.8699999999999,13367.354710555159,-3902.7616041975689,-1277.95,326.3002582577368,556.24662862882531
2015-10-18 20:04:57.756,-36.887447,174.66109,12.07,119.30239728821739,55.36495011543257,-1538.8699999999999,14514.399889518099,-4806.5272582350945,-1238.95,351.76099987749802,640.1617681220763
2015-10-18 20:04:58.344,-36.887447,174.66109,2.02,144.45815039004606,65.152625318453872,-1317.8699999999999,9421.8035868624684,-4861.079051772921,-1119.95,483.0087142675909,813.71014024747706
2015-10-18 20:04:58.524,-36.887447,174.66109,-3.2400000000000002,145.21688157849172,67.890603949429618,-453.87,9902.3596576178006,-3719.8346157031565,-967.95000000000005,654.29721200280153,765.62427388723847
2015-10-18 20:04:58.756,-36.887447,174.66109,-9.1899999999999995,147.93706989825623,67.857809056279208,-2547.8699999999999,12130.599996374725,-3883.3766370200965,-1145.95,758.68921579397511,629.14237199375077
2015-10-18 20:04:58.912,-36.887447,174.66109,-11.779999999999999,149.16212376216845,66.170876031374604,-1322.8699999999999,18388.740490419976,-7876.8635115310208,-1149.95,713.39210693268865,527.80544916298413
2015-10-18 20:04:59.313,-36.887447,174.66109,-14.550000000000001,149.32379067268485,64.632967123134549,-1039.8699999999999,12793.856953659275,-4727.5272211066322,-1039.95,657.57175704433166,586.71290657154486
2015-10-18 20:05:00.499,-36.887447,174.66109,-17.359999999999999,150.1915502402023,59.555025282882553,-501.87,15664.356451287209,-6159.5948641381301,-1209.95,623.38964497910763,507.79153294715559
2015-10-18 20:05:01.029,-36.887447,174.66109,1.6799999999999999,166.546819586021,67.172450348199874,-1566.8699999999999,12252.090934550661,-5241.1560564918791,-1174.95,463.11323817998311,291.35569159096622
2015-10-18 20:05:01.435,-36.887447,174.66109,9.3100000000000005,163.17110499454634,70.362599403793567,-1164.8699999999999,10184.202124718842,-4253.2892283351957,-1362.95,361.46195204806622,188.92026789521947
2015-10-18 20:05:01.575,-36.887447,174.66109,11.0,161.77015669298621,72.639075596587105,-1786.8699999999999,9304.8302931237831,-1809.7080077089709,-1240.95,300.09611372160197,313.8371758240113
2015-10-18 20:05:02.085,174.66058,174.66109,10.67,159.79818314682089,75.580405284538472,-770.87,13318.031647096021,-4035.159623106485,-1305.95,226.08773811887175,461.93093106252638
2015-10-18 20:05:02.785,-36.887627,174.66058,13.92,137.39503431073641,47.186234716827805,-1775.8699999999999,17559.955077785478,-2798.5606710335915,-1244.95,292.29381325974214,607.59408911713342
2015-10-18 20:05:03.282,-36.887627,174.66058,22.039999999999999,148.25343862532409,24.634082807510076,-474.87,10493.609351996194,-1041.9942920659432,-1254.95,468.09593504245771,104.01329721111239
2015-10-18 20:05:03.511,-36.887627,174.66058,23.859999999999999,157.85198773274533,23.940717800876925,-1726.8699999999999,13094.757552734833,-3128.0798698393364,-1288.95,372.32734011028225,-144.54328834782407
2015-10-18 20:05:04.064,-36.887627,174.66058,31.34,156.71244034535056,27.911351472204693,-1896.8699999999999,10839.613497678836,663.25792715865782,-1310.95,144.80240378495205,-89.941059912031903
2015-10-18 20:05:04.472,-36.887627,174.66058,32.909999999999997,149.09972482725368,43.962026300402002,-2296.8699999999999,17114.298397748767,-1996.9085497623673,-1060.95,-54.242500334154627,226.86507346327957
2015-10-18 20:05:04.730,-36.887627,174.66058,35.25,145.18426341285047,50.295561009576637,-2432.8699999999999,10603.295353584555,-1362.6716705252884,-1056.95,-138.80614352375221,329.29060861200327
2015-10-18 20:05:05.123,-36.887627,174.66058,33.030000000000001,123.65109906736366,58.72180769895472,-2469.8699999999999,11719.953841992614,-2422.6347926508788,-1154.95,-139.14334628538634,409.40231995496208
2015-10-18 20:05:05.393,-36.887627,174.66058,33.119999999999997,122.43862674997459,60.699157157084258,-1684.8699999999999,7823.2842702420321,-2215.4362197959117,-1088.95,-142.80313392824604,359.5564981199359
2015-10-18 20:05:05.930,-36.887627,174.66058,32.840000000000003,121.24231758225902,63.669551806830256,-1825.8699999999999,12689.764480348716,-4163.9903926738407,-952.95000000000005,-164.20895675679486,368.02944029091623
2015-10-18 20:05:06.065,-36.887627,174.66058,29.530000000000001,119.26526478054021,68.043527369086618,-1868.8699999999999,3596.4101530216922,-1298.7202347859568,-1045.95,-189.1118510744349,498.55470931804541
2015-10-18 20:05:06.479,-36.887627,174.66058,29.530000000000001,110.79003030872596,-81.115314116334346,-1868.8699999999999,2653.2909407434172,2753.3411377395487,-920.95000000000005,-163.92850192251541,547.54245192262476
2015-10-18 20:05:07.260,174.66023,174.66058,15.85,-141.84155329006035,-56.107410029896805,-1310.8699999999999,14788.023266007807,-4478.6442793563929,-1025.95,-43.003640124705925,546.06671509626437
2015-10-18 20:05:07.650,-36.8873,174.66023,18.399999999999999,-157.09291968399148,-37.107156791635248,-1130.8699999999999,6263.5233058189569,-2541.293142174427,-927.95000000000005,23.837987799050325,656.3943942003865
2015-10-18 20:05:08.102,-36.8873,174.66023,16.039999999999999,-161.56148652265398,-30.418411736813241,-531.87,7312.5430778259688,-3465.8679189979985,-1210.95,77.170992576144585,716.89720902289241
2015-10-18 20:05:08.598,-36.8873,174.66023,13.369999999999999,-164.52815124104421,-28.118868206314509,-1331.8699999999999,14941.029705045579,-7348.9578945756393,-1285.95,188.84560081972919,567.3018151310954
2015-10-18 20:05:08.927,-36.8873,174.66023,11.06,-166.15246617526682,-27.278570048241257,-1028.8699999999999,14527.594371799667,-6526.6571677585935,-1248.95,201.79943903070767,547.27188563536845
2015-10-18 20:05:09.262,-36.8873,174.66023,9.6799999999999997,-167.05505514394699,-26.827645272234278,-1971.8699999999999,13901.904984121797,-5444.0811703582767,-1250.95,222.54074488301134,512.80743682879108
2015-10-18 20:05:09.395,-36.8873,174.66023,19.100000000000001,-167.96428928238959,-26.116805429871334,-1984.8699999999999,855.37149681202936,-1873.159165538676,-1285.95,232.14115211233107,539.18606797279142
2015-10-18 20:05:09.643,-36.8873,174.66023,26.309999999999999,-169.47516072237013,-22.761247727811792,-1501.8699999999999,13474.005630713214,-6126.906289515824,-1296.95,246.2982789553397,512.04613872544508
2015-10-18 20:05:09.951,-36.8873,174.66023,19.460000000000001,-125.46654175717372,-20.549583925116043,-179.87,16249.832228483114,-5383.9976011743856,-1246.95,260.75375581960009,529.68244187057257
2015-10-18 20:05:10.305,-36.8873,174.66023,12.720000000000001,-180.56663784023877,-26.667542051566222,-2290.8699999999999,6836.6306192644024,-4476.6499587008639,-1261.95,270.08171485458956,428.026211465144
2015-10-18 20:05:10.747,-36.8873,174.66023,13.67,-180.06419768674061,-28.502222920860056,-270.87,15711.133375011406,-3354.4856043218742,-1230.95,249.69362504381846,485.33524909332209
2015-10-18 20:05:10.867,-36.8873,174.66023,18.43,126.87459834939224,113.70369428334504,-1211.8699999999999,14616.79387711868,-3925.6257476771593,-1246.95,238.11568016566181,483.9383982070903
2015-10-18 20:05:11.342,-36.8873,174.66023,17.890000000000001,127.25121123306567,112.7876360232703,-311.87,13969.409024678669,-3447.8466639666817,-1144.95,246.95478929163556,486.55949527876226
2015-10-18 20:05:11.757,-36.8873,174.66023,16.09,126.46830358191554,111.86809504551535,-385.87,-2161.7557088462891,1982.7516769052245,-1264.95,254.18252772376576,495.37764685132601
2015-10-18 20:05:12.553,174.66003,174.66023,12.25,70.29466460010363,82.519725694884244,-760.87,15253.406358809429,-3596.7890889002742,-1178.95,299.9814374075288,450.8079276265147
2015-10-18 20:05:14.210,-36.887135,174.66003,9.6400000000000006,141.68287911859414,79.619496762199191,-1792.8699999999999,16035.420305144438,-6324.3632359836392,-1138.95,194.50082129839817,457.42907746911828
2015-10-18 20:05:14.261,-36.887135,174.66003,10.289999999999999,129.18701563410366,90.10277848964401,-1090.8699999999999,15159.868674074085,-3989.8345080751465,-1100.95,237.5769085098768,517.03990459430656
2015-10-18 20:05:14.411,-36.887135,174.66003,5.3899999999999997,145.62701440163215,97.506145326675835,-565.87,7579.9819058561352,63.218857104545805,-1136.95,238.83506316218777,487.99826127181421
2015-10-18 20:05:14.687,-36.887135,174.66003,11.619999999999999,138.55559759171854,99.186729838228686,709.13,11213.965771374822,-1964.2451413797307,-1244.95,241.18677440596727,495.7099053394486
2015-10-18 20:05:14.948,-36.887135,174.66003,10.24,134.42271772600716,100.81163107079561,-1031.8699999999999,8760.5946016548223,-716.44110885430337,-1234.95,248.82259489991085,505.44100216274001
2015-10-18 20:05:15.461,-36.887135,174.66003,1.49,107.96050392343773,92.794989587786404,-326.87,6072.7076374338039,-647.56682068583154,-1332.95,228.73779938390305,514.41880752263467
2015-10-18 20:05:15.742,-36.887135,174.66003,15.460000000000001,63.959248501238633,69.468154798848687,-716.87,12397.62177767982,-2411.1818916454722,-1250.95,284.3855445714683,469.82813074441322
2015-10-18 20:05:15.990,-36.887135,174.66003,16.52,106.09092094245428,51.913082104436072,-1051.8699999999999,5995.7694471794721,-1351.4457270897585,-1288.95,258.19246904172036,423.4824427649159
2015-10-18 20:05:17.076,-36.887135,174.66003,15.34,129.60133107048384,52.859663116206484,-1248.8699999999999,7766.3722456692803,-2430.9751291812718,-1109.95,292.00040751200186,469.71039206390236
2015-10-18 20:05:17.172,-36.887135,174.66003,6.46,137.46614577145081,85.818364390975404,-678.87,11958.333097373774,-3006.764342155032,-1306.95,228.82657387105465,460.70668487708622
2015-10-18 20:05:17.442,-36.887135,174.66003,4.6600000000000001,134.87624226493938,89.995073601222117,-1254.8699999999999,5836.102691336313,-1519.9584182394779,-1148.95,214.06285843851941,584.50907866099942
2015-10-18 20:05:17.705,-36.887135,174.66003,4.3600000000000003,138.48500861626366,94.664217572181826,-1097.8699999999999,8307.1382045110331,-478.69692724437618,-1211.95,266.11368864345496,519.61908655915863
2015-10-18 20:05:18.121,-36.887135,174.66003,4.0899999999999999,137.23076028142222,96.710521829751428,-2003.8699999999999,8269.0226761492559,-1117.7776784000521,-1350.95,287.29698502444285,454.28710392863354
2015-10-18 20:05:18.441,-36.887135,174.66003,7.04,102.98005679340491,83.328451340626174,-2266.8699999999999,6913.8761242032424,-1672.01573442727,-1121.95,299.68308738627701,406.03169523404091
2015-10-18 20:05:18.886,-36.887135,174.66003,8.3100000000000005,105.29260581161149,76.366051105190706,-1485.8699999999999,15264.776644200101,315.12127773776228,-1162.95,257.95699168069871,408.25271688384879
2015-10-18 20:05:19.431,-36.887135,174.66003,10.140000000000001,112.76132446010624,83.132995892140485,-151.87,15291.130297400945,-1853.4145151333096,-1156.95,243.5594432031568,513.27038491088524
2015-10-18 20:05:20.140,-36.887135,174.66003,8.0999999999999996,126.43762582893284,84.295226879953162,-726.87,8067.5144468387343,-527.12682254683432,-1188.95,249.09198072780336,488.89024896913179
2015-10-18 20:05:20.623,-36.887135,174.66003,6.6699999999999999,134.56821447237292,92.080959235432829,-552.87,13172.134893587467,-4221.8763532504763,-1182.95,300.21691476855051,466.03765350758187
2015-10-18 20:05:20.892,-36.887135,174.66003,13.01,107.43597604809898,89.263506824414549,-1140.8699999999999,11372.080966817932,-1904.5745039607496,-1173.95,267.16226776166576,392.08908819864399
2015-10-18 20:05:21.176,-36.887135,174.66003,14.93,108.09108316874091,86.303129372047323,-56.869999999999997,9911.4500349486407,-1976.8052513377766,-1187.95,269.37528277152438,382.33703382194261
2015-10-18 20:05:21.683,-36.887135,174.66003,18.27,108.34862464241591,84.085141006582489,-1191.8699999999999,13539.249352007784,-803.06545259820996,-1256.95,281.00008703001259,310.32409105502165
2015-10-18 20:05:21.953,-36.887135,174.66003,19.5,116.67136274417068,87.936806943498624,-840.87,13560.52895050422,-1872.8818754894605,-1272.95,155.76080916012128,49.747570089244384
2015-10-18 20:05:22.188,-36.887135,174.66003,23.600000000000001,124.22037209001765,91.80408736988548,-1569.8699999999999,12627.568603101399,-1757.076045869318,-1233.95,47.321893217684512,145.31954040078045
2015-10-18 20:05:22.464,-36.887135,174.66003,19.600000000000001,129.48816507218629,96.020870159763916,705.13,2241.575860033699,154.68956239573458,-1237.95,-3.5466059086308945,193.25069724719975
2015-10-18 20:05:22.730,-36.887135,174.66003,32.609999999999999,124.05726398431035,102.60806329293587,-3432.8699999999999,13232.359648633961,556.52996882800471,-933.95000000000005,-133.13490976518472,322.37417111458558
2015-10-18 20:05:23.129,-36.887135,174.66003,20.039999999999999,116.67446617328471,107.95034711930778,-1065.8699999999999,9550.6715838387299,-2752.0683739063234,-1330.95,-50.76026166559808,384.13514058940251
2015-10-18 20:05:23.598,-36.887135,174.66003,22.390000000000001,115.97159721569467,109.49827322492662,-1311.8699999999999,3163.5942943529021,1004.4018706363323,-1055.95,-102.6625070895897,280.27390181406463
2015-10-18 20:05:23.866,-36.887135,174.66003,44.520000000000003,63.058566414401284,130.09878708796845,-2440.8699999999999,12566.109747461982,-2105.3113241848469,-783.95000000000005,-172.11416307863101,374.84909666123303
2015-10-18 20:05:24.268,-36.887135,174.66003,21.34,119.52332138360222,136.20238817815249,-2552.8699999999999,15333.261156226301,-4623.7809152209666,-911.95000000000005,-165.82032745063844,374.22649479180797
2015-10-18 20:05:24.803,-36.887135,174.66003,20.079999999999998,123.01190018545178,136.75403837826676,-1644.8699999999999,15779.150416046848,-7610.772091651972,-975.95000000000005,-200.60102146543989,443.44573578626523
2015-10-18 20:05:24.984,-36.887135,174.66003,18.620000000000001,123.19307164959372,138.45614792250313,-1646.8699999999999,10464.330092830009,-3445.2618021410663,-952.95000000000005,-74.342128670697036,515.16527280544597
2015-10-18 20:05:25.660,-36.887135,174.66003,29.579999999999998,-174.02783304625666,-6.131404832843792,-1651.8699999999999,16432.491199905508,-7389.090292338291,-1270.95,-47.055496549480608,598.26424817507018
2015-10-18 20:05:25.925,-36.887135,174.66003,23.920000000000002,-181.36765863395411,1.4427063587206419,-1439.8699999999999,8147.682649533449,-3410.8870517054056,-1175.95,92.055509055628363,745.29529292254972
2015-10-18 20:05:26.773,-36.887135,174.66003,14.92,-184.66188632220067,4.033973218384034,-1848.8699999999999,10638.771855548148,-4826.7099811980252,-1123.95,226.1117580387195,616.3653813093656
2015-10-18 20:05:27.423,-36.887135,174.66003,12.710000000000001,-183.2359044367289,1.9220367462555714,-236.87,8430.7992845666995,-3870.4270074953774,-1255.95,241.86424229567319,480.07209739656804
2015-10-18 20:05:27.892,174.65775,174.66003,19.23,-178.7421674905431,2.013842293389672,-664.87,18201.169222423632,-6605.6542370910329,-1321.95,283.87573710904252,564.25662271771159
2015-10-18 20:05:28.034,-36.888996,174.65775,16.379999999999999,-179.29336791592476,3.8595882377327797,-1347.8699999999999,11471.680294622742,-3005.0180390414143,-1278.95,313.1578020660682,487.63703859033239
2015-10-18 20:05:28.293,-36.888996,174.65775,15.02,-178.89996315597548,3.641110104160461,-269.87,11901.769823580695,-2104.1007303605775,-1165.95,282.32417670899133,455.41456898697282
2015-10-18 20:05:28.562,-36.888996,174.65775,14.01,-178.40108578655699,3.4807312705130187,-1022.87,12631.65975713867,-5178.6060051797213,-1175.95,316.93226602300115,400.51210862285512
2015-10-18 20:05:28.879,-36.888996,174.65775,10.85,-190.74670054920321,-0.33989644392498519,-351.87,9436.9584471931539,-2844.730785671959,-1173.95,292.19891403971508,372.13498227660784
2015-10-18 20:05:29.325,-36.888996,174.65775,19.739999999999998,112.50086261651261,141.59620620108632,-2532.8699999999999,8922.8346371660155,-2487.8586685723185,-1253.95,260.93130479390328,422.25819657947574
2015-10-18 20:05:29.477,-36.888996,174.65775,23.640000000000001,108.79858349011701,143.65456216404698,-2471.8699999999999,18753.997510790701,-3660.898579386791,-1180.95,250.37109293352435,469.69744115044159
2015-10-18 20:05:30.028,-36.888996,174.65775,4.3499999999999996,100.81710604421809,142.61715299664655,-1234.8699999999999,11542.208570039586,-923.60223186430812,-1217.95,226.66348060796531,541.63456034367175
2015-10-18 20:05:30.492,-36.888996,174.65775,0.29999999999999999,101.15268232710535,139.51394682264464,-1309.8699999999999,8624.2895472879281,-308.28558438594882,-1190.95,242.2753867239243,625.57065739033271
2015-10-18 20:05:30.990,-36.888996,174.65775,2.8799999999999999,108.26639319100973,139.42958009479082,-877.87,8191.4875634163654,-288.98680834084462,-1332.95,263.97955957372488,661.873947611826
2015-10-18 20:05:31.133,-36.888996,174.65775,-2.0499999999999998,107.76411317031055,140.23469796243904,105.13,5482.0099222002546,-775.66525634320055,-1195.95,317.96907468711504,696.8901189876492
2015-10-18 20:05:31.334,-36.888996,174.65775,5.3200000000000003,113.85695952941475,144.17401557394874,-54.869999999999997,12246.382764098327,-1100.3498044692024,-1254.95,333.94408539162964,617.45587553439645
2015-10-18 20:05:31.612,-36.888996,174.65775,3.23,113.77913429573664,144.96074502744779,-446.87,10575.48902545389,-1165.1272246000995,-1218.95,348.95128482513587,560.3613577138301
2015-10-18 20:05:32.274,-36.888996,174.65775,1.05,113.79482885160688,145.21969228253278,-1179.8699999999999,12477.786473135986,-2195.0832530509174,-1114.95,365.97299274078745,591.09019530385683
2015-10-18 20:05:32.552,-36.888996,174.65775,-1.8400000000000001,115.42477170158585,143.16606468586326,388.13,11006.187247344502,-2220.7877011077062,-1153.95,405.46205351665947,444.18677778391105
2015-10-18 20:05:32.875,-36.888996,174.65775,4.1299999999999999,112.84574730377685,139.84444864009492,30.129999999999999,17775.598295926233,-3808.4789857847891,-1184.95,411.90259201852211,512.50602444110154
2015-10-18 20:05:33.203,-36.888996,174.65775,14.210000000000001,122.58369185788766,140.92214797713825,-1089.8699999999999,14642.917253807613,-3578.0260221445174,-1113.95,407.01855819022217,459.92136685389255
2015-10-18 20:05:33.631,174.65903,174.65775,13.51,123.40976248882936,141.59809717100975,-1049.8699999999999,12992.643797532475,-2207.246127517481,-1325.95,382.61746469505874,444.53999382544362
2015-10-18 20:05:33.885,-36.890194,174.65903,13.1,125.22563579290585,141.87305924756294,-476.87,13023.315408183493,-2966.8935801559214,-1263.95,372.57506693705483,449.02889650539095
2015-10-18 20:05:34.295,-36.890194,174.65903,13.720000000000001,127.00136024106764,140.49799463664442,-1013.87,12468.307089389673,-3691.483647759429,-1163.95,398.30213201827087,371.80766806199682
2015-10-18 20:05:34.515,-36.890194,174.65903,17.289999999999999,130.07420636192884,137.44630384013371,-1447.8699999999999,11148.334959711392,-3032.4551378506485,-1262.95,397.05386591298293,214.63438206297474
2015-10-18 20:05:34.936,-36.890194,174.65903,21.170000000000002,132.03398688897485,135.46343715631173,-1431.8699999999999,9085.983409241675,-539.85366904839384,-1289.95,358.85380588985493,156.13006244271571
2015-10-18 20:05:35.479,-36.890194,174.65903,12.67,107.47383103633676,130.64106797777237,-1159.8699999999999,12967.017756404161,-1605.3945627474868,-1162.95,279.30983039604052,184.01833887994724
2015-10-18 20:05:35.762,-36.890194,174.65903,17.760000000000002,106.60198363372406,129.52842153502539,-988.87,16314.170333226459,-3201.2327837059456,-1244.95,231.34782744918812,309.51593357134414
2015-10-18 20:05:36.105,-36.890194,174.65903,20.18,105.9845034481105,129.12096819981429,-14.869999999999999,9222.3094211619791,-938.16035801294674,-1246.95,200.98515681415466,307.7529157301189
2015-10-18 20:05:36.381,-36.890194,174.65903,23.5,96.553946155370198,130.07563523514261,949.13,12034.932202959397,-1985.0806450043519,-1186.95,177.98091420522309,280.79359782351349
2015-10-18 20:05:36.635,-36.890194,174.65903,26.48,95.118366223587827,131.44939295012139,-2080.8699999999999,14741.760005346532,-3173.1123147101857,-1259.95,188.85242700031455,236.50127106654389
2015-10-18 20:05:36.892,-36.890194,174.65903,28.370000000000001,92.908866779434334,135.3141843036469,-911.87,11446.583615614843,-1247.8025836396664,-1187.95,131.98844226725834,329.8312621748621
2015-10-18 20:05:37.220,-36.890194,174.65903,29.609999999999999,90.646476800044127,138.26809553812137,-193.87,2460.0846172704059,1207.1409498768235,-1183.95,112.33268636647395,349.57084828928657
2015-10-18 20:05:37.431,-36.890194,174.65903,61.479999999999997,58.579047415113912,151.00035663513458,-955.87,13368.00229036774,-1737.5323829278241,-1128.95,82.448977093433214,429.74543229247536
2015-10-18 20:05:38.279,-36.890194,174.65903,52.729999999999997,82.932880515157507,149.71699646151939,-1341.8699999999999,10885.765845840186,-980.68944449263518,-1167.95,121.07007009183533,447.53338258498445
2015-10-18 20:05:38.508,-36.890194,174.65903,53.719999999999999,72.611251327879501,165.75073809971261,-1173.8699999999999,8279.9130080150844,-3539.0007991949633,-1153.95,104.04836217618374,416.80454499495772
2015-10-18 20:05:38.903,-36.890194,174.65903,38.649999999999999,94.2373325698602,165.66882280657867,-557.87,11289.147513392914,-4185.2768173508603,-1172.95,79.281101726026932,420.20789772338571
2015-10-18 20:05:39.044,-36.890194,174.65903,38.530000000000001,93.957432551481787,165.51084818927654,-1406.8699999999999,9966.6847538008788,-1929.2014087059683,-1217.95,117.63280889653653,454.54660120950302
2015-10-18 20:05:39.472,-36.890194,174.65903,38.119999999999997,93.596045629875263,165.95175576790473,-772.87,13547.224702042548,-4355.5836290178358,-1221.95,122.35718893750557,479.81872484857399
2015-10-18 20:05:39.732,-36.890194,174.65903,34.700000000000003,92.011491024163462,167.19320117609533,-1485.8699999999999,15608.023066780737,-4094.8613632014967,-1225.95,86.069911995910644,604.47919786293414
2015-10-18 20:05:40.130,-36.890194,174.65903,31.57,91.029689859466004,168.60549239004473,-1902.8699999999999,14399.053021729847,-3662.8979039023902,-1106.95,119.39394483068793,661.87700997826369
2015-10-18 20:05:40.414,-36.890194,174.65903,26.050000000000001,90.19466872788675,169.27283016794743,-742.87,13838.999834861032,-4849.6638571880758,-1254.95,169.01229594464161,694.46564653661653
2015-10-18 20:05:40.792,-36.890194,174.65903,23.300000000000001,89.968577613280942,169.11700074872144,-1547.8699999999999,10647.381612045974,-4550.1473805213463,-1247.95,194.0618931361517,632.88222603610291
2015-10-18 20:05:41.153,-36.890194,174.65903,19.350000000000001,89.584382372238451,168.82477820208908,-1245.8699999999999,9485.3450244933701,-1864.1086672506126,-1171.95,227.47470045808055,636.56791550588423
2015-10-18 20:05:41.433,-36.890194,174.65903,13.43,89.82548285889996,162.40422755940028,-825.87,15396.728874626642,-3474.6430432834622,-1133.95,303.56540147669773,512.73655752861168
2015-10-18 20:05:41.865,-36.890194,174.65903,9.0299999999999994,66.534252642967402,154.84108700613604,-1444.8699999999999,9016.6662066607532,-954.67908464675838,-1243.95,283.00164459869723,439.77676104409232
2015-10-18 20:05:42.066,-36.890755,174.65938,11.630000000000001,56.352327363383324,174.40955392618284,656.13,9299.9844105881548,-1367.2088354809875,-1308.95,281.30644369121364,406.57847352977518
2015-10-18 20:05:42.483,-36.890755,174.65938,15.359999999999999,60.251067387677054,186.90866694363214,-1260.8699999999999,14783.967902344484,-1326.5878785244604,-1283.95,256.46335966736598,422.06463432527403
2015-10-18 20:05:42.901,-36.890755,174.65938,5.8600000000000003,66.272863192000216,191.79109208806972,-810.87,10388.25330074816,-1358.5588233473572,-1174.95,260.08923884335496,503.69093523497548
2015-10-18 20:05:43.469,-36.890755,174.65938,5.9299999999999997,69.944615117978969,181.1753143118504,-474.87,14341.291181142196,-1224.0095157689912,-1246.95,260.14410486363573,481.75929166410242
2015-10-18 20:05:43.881,-36.890755,174.65938,23.420000000000002,70.442326905185979,177.26829716614,-1228.8699999999999,10721.390244224303,-2073.7684268143225,-1254.95,259.38280676028978,458.00175759177409
2015-10-18 20:05:44.012,-36.890755,174.65938,17.140000000000001,71.971907024913662,172.2780682478103,-2877.8699999999999,10369.456325525533,-1937.2674492744986,-1247.95,260.17801333050653,449.97881258942715
2015-10-18 20:05:44.221,-36.890755,174.65938,15.619999999999999,72.174709421686487,174.78945654671259,-514.87,9882.8732216153148,-2236.7751837140268,-1264.95,249.13389583462342,508.5879199767362
2015-10-18 20:05:45.281,-36.890755,174.65938,17.0,98.395118734709172,180.01439056137286,-288.87,12996.741110442161,-1092.9099071481878,-1197.95,258.59560683002223,517.50285267640083
2015-10-18 20:05:45.972,-36.890755,174.65938,24.390000000000001,49.279497757582661,167.68812689263484,-1743.8699999999999,9524.7587407072042,-996.67880900603086,-1244.95,190.855866476073,128.26086165182036
2015-10-18 20:05:46.186,-36.890755,174.65938,23.949999999999999,78.897699803687459,195.13408483831628,-2647.8699999999999,14154.997365880554,-1356.5222109919805,-1041.95,60.809558810936451,185.29556917859441
2015-10-18 20:05:46.707,-36.890755,174.65938,53.609999999999999,41.227405161285589,196.01850643157957,-4015.8699999999999,18887.020714923823,-4561.5926601723586,-1092.95,-27.25916250770149,358.29528110118719
2015-10-18 20:05:47.119,-36.890755,174.65938,53.0,32.022724617500444,207.24999591814645,-1610.8699999999999,12288.127456438588,-1857.2793789088705,-1085.95,-7.2501905653844858,361.40028380836344
2015-10-18 20:05:47.541,-36.890755,174.65938,53.0,202.27579897358407,55.340011290188563,-1610.8699999999999,6710.1587764984224,10460.465203382744,-1039.95,-197.32016426634601,444.16992053792643
2015-10-18 20:05:47.788,-36.890755,174.65938,37.049999999999997,184.54066338243987,-96.415711159380123,-1842.8699999999999,13625.324744833742,-2676.2619256756757,-1027.95,-77.374370170620153,378.50582193765507
2015-10-18 20:05:48.723,-36.890755,174.65938,36.380000000000003,180.97175145498011,-88.799053910032782,-1567.8699999999999,8903.3463192564559,-767.1061571793939,-1052.95,-71.25313924341927,392.20000069856951
2015-10-18 20:05:48.904,-36.890755,174.65938,33.859999999999999,172.45711333294685,-67.839057782866689,-1073.8699999999999,13921.133838890029,-3087.8029076854868,-1044.95,-109.72752936795129,443.35389893267592
2015-10-18 20:05:49.081,-36.890755,174.65938,32.380000000000003,169.21824865808824,-60.250127975709866,-1454.8699999999999,6960.2173469208819,-602.85087759880435,-1058.95,-51.042598406951356,442.3152083614882
2015-10-18 20:05:49.252,-36.890755,174.65938,30.609999999999999,167.24911729840719,-54.350066815999682,-1473.8699999999999,11543.176124734997,-3570.414666442533,-1238.95,-61.935068755452846,476.75869961465554
2015-10-18 20:05:49.509,-36.890755,174.65938,27.82,166.23549606630741,-49.435906460675845,-1416.8699999999999,7651.0819033723283,75.251743424847064,-1096.95,-68.275763763777007,550.79109513723347
2015-10-18 20:05:49.803,-36.890755,174.65938,23.0,173.4232479996825,-44.711425309876013,1955.1300000000001,6702.7530997149779,-4072.8655982319456,-1455.95,-25.076993598275919,524.90932054219809
2015-10-18 20:05:50.034,-36.890755,174.65938,21.739999999999998,170.3406813378532,-36.614488680793478,-1962.8699999999999,13128.694042316412,-5502.646001720037,-1075.95,46.89403406182501,516.83645379308189
2015-10-18 20:05:50.338,-36.890755,174.65938,20.079999999999998,168.07927798880471,-31.261306926648352,-1929.8699999999999,11292.149610240116,-4492.2230462159823,-1158.95,41.340538983768425,531.36775423103313
2015-10-18 20:05:50.577,-36.890755,174.65938,16.579999999999998,166.42536825165536,-27.487730031796133,-3087.8699999999999,10468.890576257845,-3974.1665213400011,-1221.95,39.862920250334213,648.13597183701779
2015-10-18 20:05:51.220,-36.890755,174.65938,12.5,164.92194965990925,-23.340184668814281,-653.87,13087.747139901154,-5611.4042252371364,-1277.95,82.745445207611198,712.21474408874337
2015-10-18 20:05:51.752,-36.890755,174.65938,25.350000000000001,194.49045202216337,-13.573579933627428,-1028.8699999999999,2617.1213113786366,-671.48633532467625,-1125.95,164.01052343583081,634.26612600887404
2015-10-18 20:05:52.148,174.66084,174.65938,35.920000000000002,-110.97959691494765,-181.80584497918579,-1410.8699999999999,22370.397355829758,-4838.1738916232616,-1251.95,250.06779863876108,518.02867341872502
2015-10-18 20:05:52.407,-36.89178,174.66084,34.5,-102.18925028521795,-200.63809938828936,-1631.8699999999999,11093.815158593819,-1980.6411850595191,-1236.95,218.65348651907911,499.21003919497741
2015-10-18 20:05:52.816,-36.89178,174.66084,33.469999999999999,-94.603744172773162,-215.35364888594873,-1908.8699999999999,14999.524672777274,-5764.9316325300679,-1041.95,278.01588536978494,482.53354068090914
2015-10-18 20:05:53.244,-36.89178,174.66084,22.199999999999999,234.92177672132681,-84.739623683935861,-2613.8699999999999,6976.3374010282487,-1997.8724343697293,-1298.95,255.76493422425006,427.85360676435238
2015-10-18 20:05:53.535,-36.89178,174.66084,37.950000000000003,87.467754830564886,212.54727113021283,-358.87,8849.7891285607802,-2268.9971743057322,-1146.95,244.14507423927341,406.75908487051606
2015-10-18 20:05:53.834,-36.89178,174.66084,20.440000000000001,87.436236209689781,211.61308347425813,-2624.8699999999999,9380.6645592279692,-1958.6179270711129,-1222.95,245.81931759334697,430.10853688103106
2015-10-18 20:05:54.035,-36.89178,174.66084,20.98,86.057337991828703,214.50186171164148,-1221.8699999999999,7664.0927119467178,-1826.6251502936288,-1315.95,242.84500448014239,416.10305718540411
2015-10-18 20:05:54.425,-36.89178,174.66084,20.960000000000001,90.97313029880678,203.77399677985491,-1241.8699999999999,12809.008974059578,-4477.9868109967892,-1111.95,212.39355935795734,468.05216198972727
2015-10-18 20:05:54.691,-36.89178,174.66084,21.52,93.725119866902887,197.86240195129213,-1675.8699999999999,9783.9421746008993,-1585.7263008053537,-1263.95,210.05479902763861,418.71120334361535
2015-10-18 20:05:55.066,-36.89178,174.66084,22.350000000000001,95.483244760316779,194.73785448659291,-2140.8699999999999,10625.68640385943,-2530.4715852656473,-1245.95,252.7277484508154,384.30162055731876
2015-10-18 20:05:55.607,-36.89178,174.66084,28.239999999999998,90.037136529444695,204.1771290952494,-935.87,9580.0193613863667,-1032.3335955311773,-1184.95,221.9070740071993,310.44983637548177
2015-10-18 20:05:56.122,-36.89178,174.66084,35.57,84.357380660145523,220.82894200751701,-1524.8699999999999,11434.012659086466,-1763.572853286882,-1266.95,192.49620136327582,183.39079273701057
2015-10-18 20:05:56.403,-36.89178,174.66084,38.810000000000002,81.676879616969472,227.97738338711383,-2402.8699999999999,14014.547660211989,-2991.543580937222,-1179.95,76.866517822017343,382.94974714434466
2015-10-18 20:05:56.845,-36.89178,174.66084,36.710000000000001,79.322905470572863,231.50375627126778,-1571.8699999999999,10200.943155364159,-2779.8511611287954,-1178.95,88.795796834632768,644.8842662559714
2015-10-18 20:05:57.724,174.66136,174.66084,13.35,216.39392607338127,-91.04984161736914,-1631.8699999999999,10938.223098635917,-2429.1956531880364,-1236.95,148.61313712748353,555.71091933947798
2015-10-18 20:05:57.994,-36.891106,174.66136,23.02,197.46868359882654,-42.780848492596888,-976.87,11261.209092772859,-2713.7743726864765,-1274.95,168.37061842888031,440.62989600102765
2015-10-18 20:05:58.424,-36.891106,174.66136,23.370000000000001,191.3725356982724,-27.991055364409831,142.13,17931.994749553669,-2934.1906184295085,-1236.95,148.86650967547754,436.2038659813104
2015-10-18 20:05:58.742,-36.891106,174.66136,24.43,182.35434128326466,-8.0119420334053046,-1777.8699999999999,12114.241145964301,-5272.6431298188145,-1172.95,143.851786253206,417.63366003204521
2015-10-18 20:05:59.191,-36.891106,174.66136,24.870000000000001,177.16761827761644,3.5915921033428475,-2265.8699999999999,9443.6436501553508,-2327.4249689045901,-1234.95,162.85103181769449,423.38071736430356
2015-10-18 20:05:59.307,-36.891106,174.66136,24.210000000000001,172.69192587079453,13.628941229457617,-776.87,11185.450872678421,-4199.1695026394873,-1164.95,120.37965128866867,504.80050510634254
2015-10-18 20:05:59.581,-36.891106,174.66136,22.18,169.02575241783697,22.100314920473089,-1184.8699999999999,16650.643770520594,-1823.6132331784893,-1153.95,132.10429904069539,575.13920451918989
2015-10-18 20:05:59.839,-36.891106,174.66136,8.3100000000000005,170.5791108926322,34.087778265517429,-1428.8699999999999,10606.356302702239,-3789.1579430169541,-1314.95,164.90251113314844,624.00920844325844
2015-10-18 20:06:00.124,-36.891106,174.66136,11.039999999999999,176.31418957142185,43.924493802122754,-2154.8699999999999,3184.4935945215188,-387.27920606639464,-1238.95,190.45697151357274,561.10476063020371
2015-10-18 20:06:00.362,-36.891106,174.66136,11.65,159.20368578379191,44.809005042018612,-1100.8699999999999,9708.8576585820174,-2611.3730798936567,-1199.95,216.5662168296806,568.05510659449214
2015-10-18 20:06:00.658,-36.891106,174.66136,10.66,158.37080985028879,45.422533916148652,-846.87,13183.114034079987,-2450.1166464973148,-1163.95,215.06457817639864,530.3888739536377
2015-10-18 20:06:00.870,-36.891106,174.66136,15.210000000000001,138.45959163646017,40.761344235251656,-1155.8699999999999,14420.101864702718,-3218.8292760873828,-1212.95,207.95457842477933,529.1855853216075
2015-10-18 20:06:01.268,-36.891106,174.66136,14.44,143.32118651226179,28.782454668034685,554.13,12248.749308162642,-1371.9605543838397,-1153.95,256.7567654151062,559.94833137850503
2015-10-18 20:06:01.539,-36.891106,174.66136,11.17,159.74621611163198,21.271336065601815,-858.87,9334.2685046295901,1240.8438098649153,-1276.95,230.86698418012162,465.27141113072435
2015-10-18 20:06:01.799,-36.891106,174.66136,10.44,158.65949099766812,22.844844415335061,-161.87,9404.2471276807773,-2709.6198328377814,-1290.95,226.57965039432523,502.23921832846287
2015-10-18 20:06:02.258,-36.891106,174.66136,10.34,158.46070817418467,23.216038958786264,-983.87,9778.6818628345263,188.9109379339111,-1258.95,254.54869467875912,476.59292109444925
2015-10-18 20:06:02.458,-36.891106,174.66136,10.58,158.29415276457809,23.711174592255304,-1297.8699999999999,12548.295193894841,-1363.459828478864,-1281.95,250.73725988851771,450.91271539356478
2015-10-18 20:06:03.247,-36.891106,174.66136,5.0499999999999998,143.96446330764041,19.452771127606994,-1352.8699999999999,10574.544053643365,-1370.6317428674051,-1258.95,234.70738316372228,552.27860241769076
2015-10-18 20:06:03.808,174.66142,174.66136,6.2400000000000002,148.2061737814831,6.2876508373820172,-925.87,8768.525264931468,2437.9250881145895,-1216.95,289.66164718168318,420.36943341779045
2015-10-18 20:06:04.279,-36.88967,174.66142,7.5300000000000002,149.57808774491301,3.3409828756078923,-1307.8699999999999,10359.659772687226,-1101.5132823375425,-1230.95,281.61774462592615,409.72539134377143
2015-10-18 20:06:05.172,-36.88967,174.66142,14.4,157.24001553398654,1.8586325273357005,-1046.8699999999999,9391.6309712430866,-1767.4511469875567,-1409.95,242.83205356668159,457.73237176388159
2015-10-18 20:06:05.663,-36.88967,174.66142,0.95999999999999996,162.90452884650858,-0.47273808504244386,-750.87,8988.4925311157313,-1120.6286071115237,-1330.95,282.72048831670782,880.23552296300932
2015-10-18 20:06:06.027,-36.88967,174.66142,-2.2599999999999998,173.80256842919363,9.4044089349340254,-637.87,9187.4964781513263,547.36852390047352,-1060.95,631.83668532316642,612.45598493265936
2015-10-18 20:06:06.276,-36.88967,174.66142,-4.2199999999999998,172.57250357153376,15.831993274789099,-1233.8699999999999,5463.7649261224706,1195.368005709503,-1141.95,518.93971280121548,521.61946366847928
2015-10-18 20:06:06.902,-36.88967,174.66142,10.720000000000001,164.72061172611916,-0.29626436352730678,-1756.8699999999999,12773.376103111148,-2518.8976607772361,-1102.95,503.79687950022617,705.83589778774683
